,timestamp,top_accel_x,top_accel_y,top_accel_z,top_mag_x,top_mag_y,top_mag_z,top_gy_x,top_gy_y,top_gy_z,top_q0,top_qx,top_qy,top_qz,top_yaw,top_pitch,top_roll,top_temperature,bottom_accel_x,bottom_accel_y,bottom_accel_z,bottom_mag_x,bottom_mag_y,bottom_mag_z,bottom_gy_x,bottom_gy_y,bottom_gy_z,bottom_q0,bottom_qx,bottom_qy,bottom_qz,bottom_yaw,bottom_pitch,bottom_roll,bottom_temperature,action
0,4756415,571.04,-1982.60,939.94,14.14,-12.92,-63.59,-456,-338,-71,0.32,-0.08,-0.52,0.79,142.85,-12.07,-62.47,28.72,-156.13,-1939.03,824.89,11.73,-25.39,-37.61,-456,-338,-71,0.30,-0.10,-0.52,0.80,143.86,-8.70,-63.09,28.16,male1_walking1
1,4756471,392.15,-1936.40,1002.01,19.07,-9.06,-63.74,-260,-338,-111,0.31,-0.08,-0.51,0.80,144.64,-10.80,-61.89,28.73,-178.41,-1926.57,802.61,7.60,5.78,-39.22,-260,-338,-111,0.29,-0.10,-0.51,0.80,145.31,-7.43,-62.82,28.19,male1_walking1
2,4756528,463.93,-1962.77,976.26,11.46,12.64,-70.34,-260,-338,-111,0.30,-0.08,-0.51,0.80,144.98,-10.20,-62.30,28.73,-163.57,-1983.09,803.89,7.41,1.27,-50.66,-260,-338,-111,0.28,-0.10,-0.52,0.80,145.58,-7.27,-63.32,28.20,male1_walking1
3,4756585,463.75,-2000.00,896.67,4.28,-14.98,-59.48,-354,-325,-125,0.30,-0.09,-0.53,0.79,144.66,-10.63,-64.17,28.72,-324.77,-1997.92,675.72,7.97,-30.08,-66.21,-354,-325,-125,0.29,-0.11,-0.53,0.79,144.84,-7.66,-65.86,28.17,male1_walking1
4,4756641,218.08,-2000.00,907.41,-6.72,-43.83,-55.31,-354,-325,-125,0.29,-0.10,-0.54,0.78,145.24,-9.14,-66.11,28.73,-306.64,-2000.00,761.35,11.36,-14.27,-93.83,-354,-325,-125,0.29,-0.12,-0.54,0.78,144.62,-7.05,-66.57,28.19,male1_walking1
5,4756698,143.98,-2000.00,1111.21,-17.73,-44.30,-20.22,-354,-325,-125,0.28,-0.11,-0.53,0.79,145.37,-7.12,-65.55,28.74,-546.14,-2000.00,700.20,5.41,-14.80,-128.19,-353,-337,-123,0.28,-0.14,-0.53,0.79,144.33,-4.64,-66.75,28.16,male1_walking1
6,4756755,-207.15,-2000.00,789.98,-34.27,-41.57,27.40,-353,-337,-123,0.25,-0.16,-0.54,0.79,145.85,-1.53,-68.23,28.75,-374.88,-2000.00,111.15,5.66,34.97,-144.54,-353,-337,-123,0.26,-0.18,-0.57,0.76,143.48,-1.70,-72.86,28.18,male1_walking1
7,4756810,372.99,-1980.04,1002.08,-36.47,15.50,22.29,-353,-337,-123,0.27,-0.16,-0.56,0.77,143.92,-2.99,-70.60,28.70,152.10,-2000.00,1150.09,39.99,85.19,-107.74,-468,-227,-119,0.32,-0.15,-0.53,0.77,139.17,-6.18,-67.44,28.18,male1_walking1
8,4756869,891.66,-2000.00,923.89,-40.58,88.52,71.33,-468,-227,-119,0.34,-0.15,-0.54,0.75,136.58,-8.45,-68.46,28.72,804.02,-1610.11,969.67,23.09,72.56,-74.20,-468,-227,-119,0.39,-0.12,-0.53,0.74,133.11,-13.95,-64.98,28.17,male1_walking1
9,4756925,1070.25,-2000.00,869.93,-37.46,-5.85,95.32,-468,-227,-119,0.38,-0.11,-0.54,0.74,134.99,-14.75,-66.54,28.71,334.11,-1472.78,957.82,-31.68,29.43,75.13,-463,-239,-121,0.37,-0.13,-0.52,0.76,134.95,-10.95,-64.37,28.16,male1_walking1
10,4756981,1001.59,-1801.45,779.11,-8.97,-3.10,121.39,-463,-239,-121,0.36,-0.12,-0.53,0.75,136.61,-12.37,-65.52,28.74,463.32,-1387.27,971.74,-40.50,-31.86,160.21,-463,-239,-121,0.34,-0.12,-0.52,0.77,138.59,-9.64,-64.40,28.18,male1_walking1
11,4757038,910.22,-1694.58,880.49,20.74,-40.32,123.92,-463,-239,-121,0.34,-0.10,-0.53,0.77,140.41,-11.92,-64.24,28.73,401.79,-1516.78,963.44,-62.00,-75.73,247.52,-463,-239,-121,0.30,-0.12,-0.53,0.79,143.82,-7.58,-65.52,28.16,male1_walking1
12,4757094,695.13,-1557.31,990.60,21.35,-49.39,102.65,-253,-338,-125,0.28,-0.08,-0.52,0.81,147.66,-9.19,-62.43,28.71,220.46,-1672.73,958.92,-90.18,-62.26,249.99,-253,-338,-125,0.22,-0.11,-0.53,0.81,151.93,-3.54,-64.77,28.16,male1_walking1
13,4757152,477.66,-1788.27,972.66,31.72,9.98,88.55,-253,-338,-125,0.23,-0.10,-0.52,0.82,151.68,-4.10,-63.27,28.73,292.66,-1971.19,657.84,-84.58,-72.81,249.99,-253,-338,-125,0.18,-0.12,-0.55,0.81,155.52,-0.26,-68.29,28.18,male1_walking1
14,4757209,-172.61,-1833.50,740.11,56.21,12.53,22.20,-378,-314,-98,0.19,-0.14,-0.54,0.81,153.32,1.25,-67.97,28.73,-695.98,-1879.03,557.92,-48.38,-5.68,147.29,-378,-314,-98,0.15,-0.19,-0.55,0.80,153.08,8.27,-71.72,28.17,male1_walking1
15,4757265,-861.33,-2000.00,475.65,1.63,11.86,5.98,-378,-314,-98,0.14,-0.23,-0.56,0.78,150.70,11.87,-74.69,28.75,-371.03,-1643.43,889.71,41.88,99.49,-76.19,-378,-314,-98,0.18,-0.23,-0.54,0.79,147.05,9.80,-71.66,28.18,male1_walking1
16,4757321,507.81,-1803.53,1229.31,-5.84,3.30,-14.30,-341,-284,-125,0.24,-0.18,-0.54,0.79,145.51,1.46,-68.66,28.72,-234.07,-2000.00,-128.72,22.12,68.14,-25.41,-341,-284,-125,0.25,-0.21,-0.57,0.75,142.34,2.26,-75.03,28.19,male1_walking1
17,4757376,163.39,-2000.00,-125.85,-8.64,-4.72,-31.88,-341,-284,-125,0.25,-0.21,-0.61,0.72,142.20,-0.61,-80.56,28.74,192.32,-2000.00,903.44,46.92,2.62,-113.78,-341,-284,-125,0.28,-0.17,-0.58,0.74,142.34,-4.55,-74.65,28.18,male1_walking1
18,4757434,910.34,-1646.00,1284.42,1.59,100.62,-51.43,-341,-284,-125,0.34,-0.12,-0.55,0.75,139.02,-10.54,-68.03,28.74,87.65,-2000.00,886.17,37.56,-52.47,-65.37,-400,-255,-119,0.33,-0.12,-0.54,0.77,139.83,-10.39,-66.38,28.17,male1_walking1
19,4757490,230.96,-2000.00,868.77,20.68,-41.56,-72.02,-400,-255,-119,0.34,-0.11,-0.54,0.76,139.95,-11.58,-65.97,28.72,-174.32,-1922.18,947.02,23.61,31.56,-50.19,-400,-255,-119,0.34,-0.13,-0.52,0.77,138.37,-8.17,-64.58,28.17,male1_walking1
20,4757547,581.79,-2000.00,1009.77,19.80,13.24,-65.97,-400,-255,-119,0.36,-0.11,-0.52,0.77,136.81,-11.70,-63.61,28.73,-1.16,-1995.79,813.29,18.10,-9.77,-44.72,-470,-335,-111,0.34,-0.13,-0.51,0.77,137.92,-9.07,-63.68,28.18,male1_walking1
21,4757603,527.77,-1976.99,958.13,14.48,-17.87,-69.64,-470,-335,-111,0.35,-0.10,-0.52,0.77,138.23,-11.95,-62.99,28.74,-163.15,-1940.25,806.95,17.83,-30.23,-39.67,-470,-335,-111,0.33,-0.12,-0.51,0.78,139.45,-8.70,-63.38,28.19,male1_walking1
22,4757660,415.71,-1972.60,944.95,16.59,-16.89,-67.25,-470,-335,-111,0.34,-0.10,-0.52,0.78,139.44,-11.13,-62.93,28.72,-166.26,-1941.89,816.59,12.01,-12.77,-36.99,-253,-325,-71,0.30,-0.12,-0.51,0.80,143.07,-6.97,-62.73,28.19,male1_walking1
23,4757717,405.76,-1966.86,960.94,20.70,1.70,-66.94,-253,-325,-71,0.30,-0.09,-0.51,0.80,144.38,-9.02,-61.67,28.73,-185.97,-1953.00,779.30,8.14,11.01,-38.11,-253,-325,-71,0.28,-0.11,-0.51,0.81,145.76,-5.72,-62.52,28.17,male1_walking1
24,4757774,426.39,-1960.94,930.54,10.17,27.05,-73.27,-253,-325,-71,0.29,-0.09,-0.51,0.80,145.73,-8.59,-62.07,28.73,-166.87,-1964.05,783.94,8.02,16.98,-51.61,-253,-325,-71,0.27,-0.11,-0.51,0.81,146.51,-5.79,-62.87,28.17,male1_walking1
25,4757830,514.95,-2000.00,1011.72,4.32,-10.99,-63.53,-307,-226,-98,0.31,-0.09,-0.52,0.79,144.05,-10.57,-63.71,28.73,-285.34,-2000.00,726.26,8.18,-24.83,-66.79,-307,-226,-98,0.30,-0.11,-0.53,0.78,143.36,-8.06,-65.51,28.19,male1_walking1
26,4757886,217.77,-2000.00,822.88,-4.61,-30.35,-58.73,-307,-226,-98,0.31,-0.11,-0.54,0.77,142.91,-9.57,-66.62,28.74,-361.02,-1959.84,658.45,9.32,-11.55,-90.64,-307,-226,-98,0.30,-0.13,-0.54,0.77,142.13,-6.91,-67.73,28.18,male1_walking1
27,4757942,192.26,-2000.00,984.25,-19.17,-38.65,-25.54,-361,-222,-125,0.31,-0.13,-0.55,0.77,141.54,-8.11,-67.93,28.74,-459.59,-2000.00,758.91,10.91,-21.66,-127.47,-361,-222,-125,0.31,-0.15,-0.54,0.76,139.99,-6.66,-68.38,28.19,male1_walking1
28,4757999,-193.18,-2000.00,899.11,-35.39,-47.12,14.85,-361,-222,-125,0.30,-0.17,-0.54,0.77,140.59,-3.72,-69.29,28.73,-617.55,-2000.00,197.27,2.54,16.00,-145.14,-361,-222,-125,0.30,-0.20,-0.56,0.74,138.07,-2.37,-73.56,28.17,male1_walking1
29,4758056,111.51,-1978.64,805.11,-43.50,11.45,36.88,-412,-157,-91,0.30,-0.21,-0.56,0.74,137.19,-2.18,-73.93,28.71,229.55,-2000.00,1150.39,39.54,53.34,-125.21,-412,-157,-91,0.35,-0.18,-0.54,0.74,134.12,-6.48,-69.75,28.20,male1_walking1
30,4758112,917.18,-2000.00,961.06,-47.65,86.98,61.83,-412,-157,-91,0.38,-0.18,-0.55,0.73,131.81,-8.82,-69.75,28.74,602.84,-1686.83,1032.47,13.01,74.92,-83.04,-412,-157,-91,0.42,-0.15,-0.53,0.73,128.63,-12.38,-65.86,28.16,male1_walking1
31,4758175,947.81,-2000.00,921.45,-41.76,11.35,99.01,-373,-114,-69,0.41,-0.15,-0.54,0.72,129.91,-12.68,-67.26,28.75,322.51,-1494.81,1162.84,-38.67,26.77,66.47,-373,-114,-69,0.40,-0.16,-0.51,0.74,129.30,-10.01,-64.27,28.16,male1_walking1
32,4758230,889.59,-1861.88,987.43,-5.04,12.54,116.31,-373,-114,-69,0.40,-0.15,-0.51,0.74,130.01,-10.80,-64.26,28.74,254.15,-1496.89,1097.72,-73.74,0.66,160.17,-373,-114,-69,0.38,-0.18,-0.50,0.76,131.12,-6.02,-63.99,28.18,male1_walking1
33,4758289,739.26,-1709.96,1050.66,10.22,30.87,133.06,-373,-114,-69,0.38,-0.17,-0.50,0.76,130.86,-7.15,-63.00,28.72,349.00,-1569.46,1107.67,-112.66,9.33,230.06,-439,-226,-91,0.34,-0.20,-0.49,0.78,133.72,-1.77,-63.94,28.16,male1_walking1
34,4758345,744.26,-1609.07,980.53,8.77,37.43,102.97,-439,-226,-91,0.36,-0.17,-0.49,0.78,133.57,-4.51,-62.59,28.72,375.37,-1642.46,1032.53,-127.90,1.22,249.99,-439,-226,-91,0.32,-0.20,-0.50,0.78,136.19,-0.46,-65.11,28.18,male1_walking1
35,4758401,723.02,-1681.34,874.45,12.89,49.64,62.01,-439,-226,-91,0.35,-0.17,-0.51,0.77,134.84,-4.58,-64.60,28.73,258.00,-1940.43,685.06,-104.59,-53.53,249.99,-456,-256,90,0.27,-0.20,-0.51,0.79,141.06,2.05,-66.59,28.17,male1_walking1
36,4758461,-58.53,-1900.33,497.31,39.68,59.62,50.16,-456,-256,90,0.26,-0.22,-0.50,0.80,141.19,5.36,-66.20,28.73,-681.03,-1957.76,593.69,-37.25,-1.08,175.04,-456,-256,90,0.19,-0.27,-0.49,0.80,143.69,14.08,-67.75,28.19,male1_walking1
37,4758518,-760.07,-2000.00,510.44,13.37,34.19,24.57,-456,-256,90,0.18,-0.30,-0.49,0.80,142.58,17.10,-69.56,28.73,-511.05,-1882.26,912.72,32.47,85.70,-52.96,-429,-215,144,0.21,-0.29,-0.47,0.80,140.59,16.05,-66.85,28.16,male1_walking1
38,4758575,218.51,-1809.81,1403.63,-5.48,69.39,11.04,-429,-215,144,0.24,-0.26,-0.46,0.82,140.25,11.78,-62.78,28.75,365.42,-2000.00,-133.42,22.80,120.25,-41.17,-429,-215,144,0.28,-0.27,-0.51,0.77,135.36,6.97,-70.54,28.20,male1_walking1
39,4758631,797.97,-1893.19,776.31,34.57,16.41,-46.52,-429,-215,144,0.32,-0.20,-0.51,0.78,135.80,-0.74,-65.84,28.73,397.95,-1768.92,1007.81,43.27,5.87,-104.30,-429,-215,144,0.34,-0.16,-0.48,0.79,136.02,-4.52,-60.06,28.18,male1_walking1
40,4758687,900.27,-1968.75,1135.31,31.95,-2.27,-67.50,-446,-72,-104,0.42,-0.11,-0.51,0.75,130.80,-15.33,-61.27,28.72,-77.82,-2000.00,747.56,29.11,-58.68,-56.56,-446,-72,-104,0.41,-0.12,-0.52,0.74,130.41,-14.35,-63.89,28.15,male1_walking1
41,4758744,142.70,-1920.78,919.98,19.29,-36.45,-69.82,-446,-72,-104,0.43,-0.13,-0.52,0.73,129.02,-15.00,-64.48,28.73,-175.78,-1972.60,931.76,23.53,35.31,-42.26,-446,-72,-104,0.43,-0.16,-0.51,0.73,126.57,-11.43,-64.35,28.18,male1_walking1
42,4758801,575.01,-2000.00,997.50,13.92,30.70,-61.73,-446,-72,-104,0.46,-0.15,-0.52,0.71,123.51,-14.87,-64.10,28.72,32.53,-1974.37,789.49,14.31,12.28,-36.13,-456,-120,-125,0.45,-0.18,-0.51,0.71,123.07,-11.74,-64.70,28.19,male1_walking1
43,4758857,583.44,-1970.15,942.75,14.05,7.07,-69.16,-456,-120,-125,0.47,-0.16,-0.51,0.70,121.82,-14.48,-64.09,28.73,-75.20,-1965.76,797.79,9.50,-15.94,-30.59,-456,-120,-125,0.45,-0.19,-0.51,0.71,122.32,-10.85,-64.79,28.19,male1_walking1
44,4758913,398.07,-2000.00,909.00,14.79,-10.07,-64.12,-456,-120,-125,0.46,-0.18,-0.51,0.70,121.66,-12.63,-64.56,28.73,-262.76,-1949.28,712.34,3.52,-6.32,-30.33,-329,-63,-123,0.45,-0.22,-0.51,0.70,120.64,-8.82,-66.50,28.19,male1_walking1
45,4758970,276.86,-1942.02,896.79,14.05,28.57,-61.95,-329,-63,-123,0.47,-0.21,-0.50,0.69,117.96,-10.67,-65.97,28.74,-307.80,-1923.77,692.44,3.08,25.52,-37.88,-329,-63,-123,0.47,-0.25,-0.49,0.69,116.50,-6.72,-67.15,28.19,male1_walking1
46,4759026,362.30,-1986.21,935.91,2.52,46.74,-76.28,-329,-63,-123,0.50,-0.24,-0.49,0.67,113.41,-9.74,-66.37,28.73,-142.70,-1957.70,704.28,2.75,39.50,-50.93,-361,-113,-125,0.48,-0.27,-0.48,0.68,113.23,-5.86,-66.62,28.19,male1_walking1
47,4759083,452.15,-1985.60,898.19,-7.22,9.71,-61.67,-361,-113,-125,0.50,-0.25,-0.49,0.67,113.07,-8.30,-66.12,28.74,-329.10,-1958.62,653.20,3.96,2.70,-70.33,-361,-113,-125,0.48,-0.28,-0.48,0.68,113.48,-4.53,-66.93,28.16,male1_walking1
48,4759139,202.76,-2000.00,784.73,-20.26,-4.31,-48.40,-361,-113,-125,0.48,-0.27,-0.49,0.68,113.75,-5.50,-67.66,28.71,-272.52,-2000.00,739.93,12.46,19.09,-93.67,-361,-113,-125,0.47,-0.29,-0.48,0.68,113.10,-3.57,-67.43,28.19,male1_walking1
49,4759195,202.09,-2000.00,1067.32,-27.26,-41.40,-5.26,-427,-8,-123,0.49,-0.27,-0.49,0.67,112.11,-7.15,-67.28,28.73,-536.74,-2000.00,699.34,3.08,-14.15,-138.10,-427,-8,-123,0.50,-0.29,-0.49,0.66,109.73,-6.50,-68.50,28.19,male1_walking1
50,4759253,-194.27,-2000.00,788.76,-53.60,-22.45,15.78,-427,-8,-123,0.49,-0.31,-0.49,0.65,109.48,-4.32,-70.43,28.71,-537.48,-2000.00,305.05,-9.31,32.26,-146.77,-427,-8,-123,0.50,-0.34,-0.50,0.63,106.47,-4.17,-73.72,28.19,male1_walking1
51,4759311,3.72,-1922.36,1264.83,-72.11,54.28,51.95,-361,-120,-3,0.48,-0.35,-0.44,0.68,107.39,2.85,-68.00,28.72,40.22,-2000.00,1424.99,-11.59,159.79,-111.40,-361,-120,-3,0.51,-0.34,-0.40,0.67,103.72,2.65,-64.07,28.18,male1_walking1
52,4759366,881.04,-2000.00,1335.08,-62.86,147.30,66.46,-361,-120,-3,0.53,-0.34,-0.40,0.67,102.26,2.09,-62.93,28.72,596.62,-1532.23,1312.62,-49.97,120.54,-92.98,-361,-120,-3,0.56,-0.31,-0.39,0.66,99.76,-1.31,-59.92,28.17,male1_walking1
53,4759423,946.23,-2000.00,1271.30,-63.38,97.92,90.59,-310,160,-98,0.64,-0.30,-0.40,0.58,90.29,-9.88,-59.38,28.75,200.87,-1459.35,1484.13,-113.37,88.49,33.74,-310,160,-98,0.68,-0.30,-0.38,0.55,84.30,-10.06,-57.37,28.18,male1_walking1
54,4759478,888.79,-1940.80,1305.18,-23.97,116.79,114.20,-310,160,-98,0.70,-0.31,-0.37,0.52,79.68,-11.21,-56.67,28.72,311.58,-1550.78,1461.36,-144.47,86.05,103.21,-310,160,-98,0.71,-0.34,-0.35,0.51,76.22,-8.58,-57.28,28.19,male1_walking1
55,4759536,825.07,-1883.18,1190.67,-7.15,139.68,136.47,-334,-120,-125,0.67,-0.35,-0.32,0.58,82.76,-1.27,-56.46,28.72,394.65,-1584.29,1406.37,-172.02,78.43,179.10,-334,-120,-125,0.61,-0.38,-0.31,0.63,88.79,5.17,-58.19,28.19,male1_walking1
56,4759592,865.91,-1784.55,1024.41,5.80,129.47,106.76,-334,-120,-125,0.60,-0.37,-0.32,0.64,90.92,4.86,-58.23,28.72,548.40,-1651.25,1203.74,-171.81,72.85,235.00,-334,-120,-125,0.55,-0.39,-0.33,0.66,95.82,8.55,-61.02,28.17,male1_walking1
57,4759649,939.70,-1732.18,693.36,-3.44,113.24,76.09,-334,-120,-125,0.56,-0.37,-0.37,0.64,95.72,4.04,-62.98,28.72,396.91,-1750.00,850.28,-131.28,26.76,249.99,-447,-118,-65,0.51,-0.40,-0.38,0.66,99.39,8.08,-66.23,28.19,male1_walking1
58,4759705,626.16,-1790.16,386.11,37.03,112.90,43.62,-447,-118,-65,0.53,-0.39,-0.40,0.63,96.97,3.82,-68.47,28.73,-8.67,-1946.23,758.73,-52.28,-9.12,225.82,-447,-118,-65,0.49,-0.42,-0.39,0.66,100.30,9.99,-69.21,28.17,male1_walking1
59,4759760,-200.07,-2000.00,686.34,73.36,5.18,13.49,-447,-118,-65,0.50,-0.41,-0.38,0.66,100.36,9.34,-67.60,28.74,-669.98,-1702.45,731.99,23.19,17.42,62.28,-415,222,-121,0.56,-0.41,-0.34,0.63,92.19,7.32,-63.95,28.16,male1_walking1
60,4759817,-83.74,-1942.44,1004.70,20.24,-40.74,11.29,-415,222,-121,0.63,-0.37,-0.34,0.59,86.02,0.22,-60.55,28.72,-121.09,-1838.93,768.13,59.47,99.22,-73.34,-415,222,-121,0.69,-0.37,-0.33,0.53,77.62,-2.93,-59.11,28.17,male1_walking1
61,4759872,847.11,-1995.85,1041.63,-21.30,126.57,-68.44,-415,222,-121,0.74,-0.36,-0.34,0.45,69.34,-10.62,-58.85,28.72,287.17,-2000.00,-151.61,17.14,200.22,-38.07,-429,276,90,0.75,-0.41,-0.35,0.39,62.96,-11.79,-64.72,28.18,male1_walking1
62,4759929,872.50,-1954.41,839.84,23.79,111.34,-81.72,-429,276,90,0.79,-0.38,-0.35,0.33,56.69,-17.86,-60.91,28.71,-3.23,-1820.68,1056.95,29.35,53.67,-61.24,-429,276,90,0.80,-0.38,-0.32,0.34,53.82,-14.60,-58.43,28.19,male1_walking1
63,4759986,729.37,-1816.65,739.32,22.39,-3.81,-49.83,-429,276,90,0.80,-0.38,-0.34,0.31,53.02,-18.46,-59.30,28.71,-153.63,-2000.00,543.82,25.29,-33.55,-55.45,-429,276,90,0.79,-0.41,-0.33,0.32,53.95,-14.77,-62.60,28.19,male1_walking1
64,4760042,246.40,-1915.28,1001.89,21.64,-76.30,-62.73,-402,317,-6,0.79,-0.39,-0.34,0.32,53.63,-16.33,-60.95,28.72,-70.86,-2000.00,922.36,27.79,68.07,-37.01,-402,317,-6,0.80,-0.41,-0.30,0.32,50.93,-12.46,-60.12,28.16,male1_walking1
65,4760098,557.80,-2000.00,938.48,14.88,65.61,-61.40,-402,317,-6,0.81,-0.41,-0.30,0.29,47.32,-14.50,-59.47,28.73,-95.40,-1995.24,755.98,16.54,-1.12,-44.94,-402,317,-6,0.81,-0.43,-0.28,0.29,46.90,-11.45,-61.23,28.17,male1_walking1
66,4760154,459.11,-1975.89,873.11,8.00,13.06,-63.67,-456,317,-17,0.81,-0.43,-0.29,0.27,45.70,-13.30,-62.04,28.74,-175.66,-1924.68,728.15,10.12,5.70,-40.62,-456,317,-17,0.80,-0.46,-0.27,0.29,45.54,-9.69,-63.54,28.20,male1_walking1
67,4760209,439.51,-1962.04,880.68,7.49,18.99,-61.71,-456,317,-17,0.81,-0.45,-0.28,0.26,43.88,-11.94,-63.36,28.72,-182.68,-1891.05,754.09,5.07,21.90,-40.73,-456,317,-17,0.80,-0.47,-0.25,0.27,43.08,-8.00,-64.44,28.17,male1_walking1
68,4760266,565.73,-1952.21,990.36,6.36,50.42,-62.85,-427,346,-106,0.81,-0.46,-0.26,0.25,40.84,-10.95,-63.54,28.74,32.84,-1949.40,726.68,-1.36,41.02,-41.01,-427,346,-106,0.80,-0.48,-0.24,0.25,40.43,-8.43,-65.38,28.18,male1_walking1
69,4760322,576.35,-1946.72,943.54,-5.03,54.18,-72.37,-427,346,-106,0.81,-0.48,-0.25,0.23,38.51,-11.27,-65.12,28.73,-142.52,-1966.98,738.59,-6.88,35.58,-47.82,-427,346,-106,0.80,-0.50,-0.23,0.24,38.27,-7.42,-66.91,28.18,male1_walking1
70,4760377,456.54,-2000.00,833.86,-12.64,16.85,-56.02,-427,346,-106,0.80,-0.50,-0.24,0.22,37.80,-9.65,-67.64,28.72,-321.17,-1994.14,548.83,-5.37,-9.43,-67.74,-361,324,-44,0.79,-0.52,-0.23,0.23,37.05,-6.78,-69.24,28.17,male1_walking1
71,4760457,310.36,-2000.00,887.88,-26.31,-4.67,-40.66,-361,324,-44,0.81,-0.51,-0.24,0.20,34.69,-10.28,-67.54,28.73,-360.23,-2000.00,778.26,-2.17,-8.54,-111.43,-361,324,-44,0.80,-0.52,-0.21,0.20,33.57,-7.44,-67.79,28.17,male1_walking1
72,4760519,-79.16,-2000.00,1001.34,-50.81,-26.53,12.16,-253,379,-23,0.81,-0.51,-0.18,0.20,31.13,-5.33,-66.14,28.71,-606.57,-2000.00,409.73,-17.85,24.66,-144.51,-253,379,-23,0.81,-0.54,-0.16,0.17,26.95,-3.62,-68.30,28.20,male1_walking1
73,4760575,59.57,-1920.35,1095.34,-31.51,6.47,19.76,-253,379,-23,0.82,-0.53,-0.14,0.17,24.99,-2.85,-65.84,28.73,-105.22,-1950.56,880.86,-9.78,138.49,-102.65,-253,379,-23,0.83,-0.53,-0.11,0.13,19.24,-2.52,-65.18,28.19,male1_walking1
74,4760631,752.26,-2000.00,1176.33,-44.43,137.37,51.34,-459,375,-67,0.83,-0.54,-0.11,0.12,18.80,-2.87,-66.90,28.72,619.93,-1736.51,1258.48,-4.32,165.95,-108.32,-459,375,-67,0.84,-0.53,-0.12,0.08,15.57,-6.33,-65.25,28.16,male1_walking1
75,4760686,1057.92,-2000.00,1124.94,-62.00,106.29,91.93,-459,375,-67,0.82,-0.55,-0.13,0.09,17.06,-6.41,-68.41,28.72,400.88,-1559.08,1211.24,-61.96,92.27,-7.89,-459,375,-67,0.82,-0.54,-0.12,0.09,16.61,-6.02,-67.74,28.18,male1_walking1
76,4760744,977.48,-1924.50,1097.84,-21.59,75.78,113.30,-459,375,-67,0.82,-0.55,-0.13,0.10,18.40,-6.01,-68.78,28.72,402.28,-1451.72,1404.11,-86.07,69.29,98.63,-348,375,-303,0.82,-0.54,-0.13,0.16,23.84,-2.67,-67.62,28.18,male1_walking1
77,4760799,892.27,-1900.76,1066.83,2.78,73.71,129.95,-348,375,-303,0.81,-0.53,-0.16,0.20,29.14,-2.46,-67.65,28.72,463.81,-1525.27,1177.19,-104.77,24.40,175.08,-348,375,-303,0.79,-0.53,-0.16,0.25,34.51,0.29,-67.84,28.19,male1_walking1
78,4760985,601.26,-1712.10,685.12,45.39,17.20,53.44,-415,317,-340,0.71,-0.47,-0.35,0.38,62.11,-8.21,-71.72,28.72,81.12,-1988.65,723.45,-21.07,-124.89,220.25,-332,-70,-386,0.64,-0.47,-0.35,0.50,74.61,1.44,-71.93,28.20,male1_walking1
79,4761041,-608.09,-2000.00,1121.40,114.31,-81.13,32.12,-332,-70,-386,0.61,-0.44,-0.32,0.58,82.69,7.32,-65.45,28.70,-943.24,-1685.42,413.33,21.74,-140.05,35.45,-332,-70,-386,0.55,-0.46,-0.31,0.63,89.41,13.44,-66.63,28.18,male1_walking1
80,4761097,-442.26,-2000.00,601.68,32.62,-120.61,9.33,-332,-70,-386,0.53,-0.44,-0.34,0.64,93.54,12.35,-66.80,28.73,-421.75,-1977.48,723.39,47.11,94.18,-92.85,-456,-102,-125,0.55,-0.45,-0.33,0.62,89.84,10.83,-67.04,28.19,male1_walking1
81,4761154,335.45,-2000.00,1198.36,-47.76,176.64,-65.11,-456,-102,-125,0.59,-0.44,-0.34,0.59,85.59,6.84,-66.97,28.73,383.24,-2000.00,159.48,26.47,244.67,-81.59,-456,-102,-125,0.61,-0.47,-0.35,0.53,79.39,4.59,-71.92,28.19,male1_walking1
82,4761210,1095.21,-1945.37,904.17,-14.56,165.21,-67.76,-456,-102,-125,0.65,-0.45,-0.36,0.50,76.42,-1.15,-70.74,28.73,253.54,-1658.81,1195.98,46.39,-13.71,-77.32,-456,-102,-125,0.65,-0.41,-0.34,0.54,79.37,-0.43,-64.67,28.18,male1_walking1
83,4761266,804.14,-1882.57,1131.04,20.41,-113.00,-57.66,-359,322,-437,0.71,-0.35,-0.38,0.48,75.46,-11.09,-61.71,28.73,-375.85,-2000.00,888.79,20.59,-78.89,-78.20,-359,322,-437,0.71,-0.37,-0.36,0.47,73.32,-9.41,-62.17,28.17,male1_walking1
84,4761323,386.17,-1850.46,1121.70,11.11,5.62,-68.70,-359,322,-437,0.74,-0.36,-0.36,0.44,68.80,-11.98,-60.25,28.69,64.45,-2000.00,886.35,22.09,37.38,-46.68,-359,322,-437,0.75,-0.38,-0.34,0.43,65.76,-10.12,-60.83,28.18,male1_walking1
85,4761379,557.31,-2000.00,989.44,14.92,9.96,-74.58,-307,345,-388,0.77,-0.38,-0.34,0.39,61.91,-13.51,-60.58,28.70,-76.17,-1957.46,838.68,10.80,-8.71,-41.24,-307,345,-388,0.76,-0.42,-0.31,0.39,59.77,-8.71,-62.75,28.19,male1_walking1
86,4761473,492.07,-1985.53,892.15,20.35,-8.18,-79.10,-307,345,-388,0.78,-0.40,-0.34,0.35,57.02,-14.27,-62.68,28.73,-256.23,-1897.22,782.78,10.78,-20.16,-40.47,-238,319,-393,0.76,-0.43,-0.31,0.36,57.23,-9.64,-63.79,28.16,male1_walking1
87,4761529,323.73,-1932.56,1044.19,18.20,-1.51,-77.13,-238,319,-393,0.78,-0.42,-0.32,0.35,55.88,-11.29,-62.45,28.72,-109.01,-1953.19,826.78,7.06,15.82,-45.85,-238,319,-393,0.77,-0.43,-0.30,0.36,55.29,-8.51,-63.33,28.17,male1_walking1
88,4761584,653.20,-1985.41,1049.13,2.01,14.36,-71.54,-238,319,-393,0.78,-0.42,-0.32,0.33,54.08,-12.41,-62.72,28.74,-105.77,-2000.00,815.55,4.56,-8.56,-54.44,-453,321,-394,0.76,-0.44,-0.31,0.36,56.44,-8.55,-64.52,28.18,male1_walking1
89,4761642,334.96,-2000.00,872.25,2.19,-39.06,-59.89,-453,321,-394,0.76,-0.44,-0.32,0.37,58.32,-9.90,-65.38,28.73,-450.93,-1941.04,684.27,6.77,-45.02,-75.40,-453,321,-394,0.74,-0.46,-0.31,0.39,59.94,-5.87,-66.88,28.18,male1_walking1
90,4761697,191.89,-2000.00,1042.36,-11.10,-57.48,-53.91,-453,321,-394,0.74,-0.44,-0.32,0.39,61.15,-7.48,-66.15,28.69,-457.58,-2000.00,857.67,9.40,-21.03,-109.28,-453,321,-394,0.74,-0.45,-0.31,0.40,60.81,-5.15,-66.05,28.17,male1_walking1
91,4761754,-22.71,-2000.00,1187.87,-13.84,-49.21,-13.54,-466,317,-340,0.74,-0.44,-0.30,0.41,61.70,-4.48,-64.41,28.70,-870.42,-2000.00,762.94,5.62,-7.81,-139.85,-466,317,-340,0.73,-0.46,-0.28,0.41,59.97,-1.23,-65.29,28.21,male1_walking1
92,4761811,-146.48,-2000.00,31.98,-38.49,-18.72,54.56,-466,317,-340,0.69,-0.52,-0.29,0.41,60.74,1.17,-72.60,28.71,111.21,-1881.16,507.45,53.07,-28.57,-140.01,-466,317,-340,0.72,-0.49,-0.31,0.38,59.11,-4.48,-71.40,28.19,male1_walking1
93,4761867,583.13,-2000.00,900.51,-37.03,-23.23,54.79,-354,365,-111,0.75,-0.46,-0.31,0.34,54.92,-9.13,-67.95,28.75,462.89,-2000.00,1048.65,63.97,57.01,-92.72,-354,365,-111,0.80,-0.43,-0.30,0.30,49.16,-12.88,-62.55,28.20,male1_walking1
94,4761923,1269.10,-2000.00,935.24,-27.69,-2.72,90.75,-354,365,-111,0.80,-0.42,-0.33,0.28,49.20,-16.22,-63.49,28.72,389.95,-1473.51,988.71,23.52,32.55,12.25,-354,365,-111,0.81,-0.41,-0.30,0.28,46.98,-15.03,-60.04,28.17,male1_walking1
95,4761980,930.18,-1875.37,965.15,-5.54,-10.89,117.27,-402,321,-121,0.80,-0.42,-0.31,0.30,50.26,-14.07,-62.03,28.72,403.50,-1356.75,1147.95,-28.71,31.98,110.11,-402,321,-121,0.80,-0.42,-0.28,0.32,50.35,-10.75,-59.81,28.19,male1_walking1
96,4762036,982.42,-1720.34,922.61,22.92,2.75,139.74,-402,321,-121,0.80,-0.41,-0.30,0.33,52.36,-11.85,-60.00,28.72,481.20,-1411.62,1038.27,-38.12,-9.75,199.61,-402,321,-121,0.79,-0.41,-0.28,0.36,54.62,-8.51,-59.74,28.17,male1_walking1
97,4762092,907.47,-1642.33,857.30,46.81,-15.60,120.25,-402,321,-121,0.79,-0.39,-0.30,0.36,55.69,-11.42,-58.89,28.73,469.60,-1431.27,971.56,-59.89,-51.23,249.99,-466,317,-98,0.76,-0.41,-0.30,0.40,59.89,-7.49,-60.34,28.19,male1_walking1
98,4762149,704.71,-1514.04,1023.32,39.12,-41.10,69.26,-466,317,-98,0.78,-0.37,-0.31,0.39,60.04,-11.55,-57.39,28.73,265.01,-1811.40,1008.12,-61.87,-90.96,249.99,-466,317,-98,0.74,-0.40,-0.31,0.44,64.80,-6.66,-60.48,28.18,male1_walking1
99,4762205,570.68,-1900.27,954.10,85.92,-30.15,43.96,-466,317,-98,0.77,-0.37,-0.32,0.42,63.63,-10.37,-57.62,28.72,-101.38,-2000.00,607.91,-37.59,-196.54,249.99,-463,-85,-98,0.66,-0.42,-0.31,0.54,77.36,2.91,-62.77,28.19,male1_walking1
100,4762262,-1248.29,-2000.00,1238.46,113.66,-157.97,30.20,-463,-85,-98,0.61,-0.42,-0.26,0.62,84.66,11.76,-57.81,28.72,-1276.67,-1636.17,7.32,20.34,-42.88,-12.12,-463,-85,-98,0.56,-0.48,-0.25,0.63,84.72,18.98,-63.98,28.18,male1_walking1
101,4762318,-312.32,-1980.71,946.72,-15.46,-93.41,11.32,-463,-85,-98,0.57,-0.46,-0.28,0.63,87.06,14.69,-63.77,28.72,-149.78,-2000.00,784.06,44.62,96.18,-104.68,-292,-118,-15,0.58,-0.46,-0.28,0.61,84.34,12.85,-64.47,28.16,male1_walking1
102,4762374,244.02,-2000.00,1227.78,-33.58,133.74,-59.43,-292,-118,-15,0.60,-0.45,-0.29,0.59,82.32,11.06,-64.10,28.72,157.04,-2000.00,48.22,9.87,195.74,-66.33,-292,-118,-15,0.60,-0.50,-0.30,0.55,77.60,11.35,-70.88,28.15,male1_walking1
103,4762430,1064.76,-2000.00,725.40,1.38,68.12,-71.27,-292,-118,-15,0.63,-0.47,-0.34,0.52,76.85,4.02,-70.54,28.72,282.65,-1469.60,1270.32,39.05,-36.30,-86.71,-292,-118,-15,0.64,-0.41,-0.31,0.56,80.35,3.69,-62.46,28.17,male1_walking1
104,4762487,669.01,-1765.93,1350.34,15.32,-61.30,-51.81,-470,321,-121,0.73,-0.33,-0.34,0.49,73.33,-9.76,-55.88,28.72,42.66,-2000.00,986.63,23.82,-56.29,-68.28,-470,321,-121,0.74,-0.33,-0.35,0.47,70.83,-11.98,-56.25,28.17,male1_walking1
105,4762543,541.75,-1909.30,1089.72,17.65,-18.62,-66.26,-470,321,-121,0.76,-0.31,-0.36,0.43,67.65,-16.41,-55.67,28.72,-15.75,-2000.00,918.88,18.55,3.70,-39.34,-470,321,-121,0.76,-0.34,-0.35,0.43,66.33,-13.81,-57.18,28.19,male1_walking1
106,4762599,574.28,-1999.15,1083.68,18.60,-33.87,-65.99,-415,317,13,0.78,-0.32,-0.37,0.39,63.51,-18.80,-55.87,28.72,-66.96,-1948.30,987.67,14.02,-37.09,-33.03,-415,317,13,0.78,-0.34,-0.35,0.40,63.09,-16.21,-56.67,28.17,male1_walking1
107,4762655,536.99,-1926.82,1051.15,23.91,-25.23,-61.74,-415,317,13,0.79,-0.32,-0.36,0.37,61.18,-19.14,-55.88,28.72,-184.45,-1974.24,890.87,13.83,-35.58,-25.12,-415,317,13,0.78,-0.35,-0.34,0.39,61.31,-14.94,-57.71,28.18,male1_walking1
108,4762711,411.80,-1935.49,1022.71,38.14,-82.22,-62.63,-415,317,13,0.79,-0.33,-0.36,0.37,60.75,-18.33,-56.76,28.72,-269.04,-1920.04,935.18,13.02,-38.58,-28.53,-409,-58,23,0.74,-0.38,-0.29,0.47,67.04,-4.13,-57.20,28.18,male1_walking1
109,4762767,355.53,-1982.42,1095.15,26.27,-46.23,-63.05,-409,-58,23,0.72,-0.38,-0.29,0.50,70.25,-2.15,-57.51,28.72,-219.48,-2000.00,853.09,13.23,-35.19,-42.98,-409,-58,23,0.69,-0.41,-0.28,0.53,72.93,3.05,-59.57,28.18,male1_walking1
110,4762827,427.37,-2000.00,990.36,8.06,-53.63,-44.22,-409,-58,23,0.68,-0.40,-0.31,0.53,75.51,0.39,-60.76,28.71,-345.83,-1933.59,860.47,17.59,-59.36,-59.04,-388,-85,36,0.65,-0.42,-0.29,0.56,78.17,5.13,-61.10,28.18,male1_walking1
111,4762882,256.10,-2000.00,1032.84,15.80,-70.47,-52.72,-388,-85,36,0.65,-0.40,-0.31,0.57,80.55,2.87,-60.86,28.70,-409.79,-2000.00,786.44,20.52,-45.47,-82.56,-388,-85,36,0.63,-0.42,-0.30,0.58,81.93,5.79,-61.90,28.17,male1_walking1
112,4762937,262.33,-2000.00,1030.40,-8.39,-42.62,-29.75,-388,-85,36,0.63,-0.40,-0.32,0.58,83.79,3.59,-62.11,28.71,-396.91,-2000.00,771.48,24.78,-50.96,-111.78,-358,-109,-125,0.60,-0.41,-0.33,0.60,87.08,5.49,-62.85,28.19,male1_walking1
113,4762993,-188.66,-2000.00,896.36,-6.53,-82.80,1.17,-358,-109,-125,0.57,-0.40,-0.34,0.63,91.91,7.11,-63.22,28.73,428.65,-1925.84,812.99,98.75,-84.92,-149.93,-358,-109,-125,0.63,-0.22,-0.46,0.59,97.02,-18.33,-59.46,28.18,male1_walking1
114,4763106,1040.22,-2000.00,848.21,-56.59,-59.74,60.15,-348,249,-98,0.65,-0.21,-0.50,0.53,94.80,-25.69,-63.05,28.72,793.40,-1854.37,1128.60,66.72,20.40,-80.48,-348,249,-98,0.69,-0.18,-0.49,0.51,89.54,-29.21,-58.60,28.19,male1_walking1
115,4763162,1474.18,-2000.00,705.63,-42.12,-48.84,88.07,-348,249,-98,0.67,-0.19,-0.53,0.48,91.59,-32.12,-63.86,28.71,388.85,-1383.42,935.36,53.46,-86.48,37.10,-348,249,-98,0.67,-0.19,-0.51,0.51,91.70,-29.42,-61.27,28.19,male1_walking1
116,4763245,858.40,-1780.64,849.49,16.45,-71.94,128.46,-361,208,-77,0.63,-0.21,-0.52,0.54,97.99,-24.62,-65.63,28.73,404.85,-1404.42,909.42,-13.79,-36.20,170.56,-361,208,-77,0.62,-0.23,-0.50,0.56,98.08,-21.21,-64.68,28.19,male1_walking1
117,4763302,847.78,-1655.94,916.20,26.24,-35.45,138.86,-361,208,-77,0.63,-0.21,-0.50,0.56,97.70,-22.84,-63.35,28.72,427.31,-1410.22,984.13,-54.34,-54.75,249.99,-470,105,-67,0.58,-0.25,-0.47,0.61,101.62,-14.41,-64.09,28.16,male1_walking1
118,4763358,870.12,-1461.30,998.96,30.78,-37.76,97.11,-470,105,-67,0.59,-0.22,-0.48,0.61,102.22,-17.26,-61.83,28.73,343.63,-1488.46,973.69,-75.16,-93.69,249.99,-470,105,-67,0.55,-0.25,-0.48,0.64,106.36,-12.06,-64.12,28.19,male1_walking1
119,4763453,39.06,-2000.00,579.28,29.69,-0.65,63.21,-436,143,-50,0.55,-0.29,-0.49,0.61,103.98,-10.34,-69.55,28.72,-154.60,-1825.44,554.75,-63.90,-57.20,219.45,-436,143,-50,0.51,-0.33,-0.49,0.62,105.56,-5.52,-72.37,28.19,male1_walking1
120,4763509,-1414.67,-2000.00,532.65,9.32,-36.27,3.88,-436,143,-50,0.50,-0.36,-0.47,0.64,104.18,-0.20,-72.31,28.70,-791.63,-1682.86,670.78,24.25,38.70,-58.42,-436,143,-50,0.54,-0.36,-0.43,0.62,98.96,-0.84,-68.84,28.16,male1_walking1
121,4763569,127.26,-1740.60,1247.74,-30.34,-4.33,-5.71,-436,143,-50,0.60,-0.32,-0.43,0.60,95.31,-7.30,-64.14,28.72,-463.62,-2000.00,578.98,27.73,103.79,-38.08,-432,102,-44,0.60,-0.36,-0.40,0.58,90.86,-3.73,-65.64,28.20,male1_walking1
122,4763628,27.04,-2000.00,216.25,-43.99,56.35,-24.95,-432,102,-44,0.60,-0.39,-0.43,0.54,88.11,-5.46,-71.12,28.72,329.71,-1964.84,994.57,42.14,68.27,-106.58,-432,102,-44,0.65,-0.36,-0.42,0.52,83.88,-10.37,-66.89,28.17,male1_walking1
123,4763683,1113.40,-1724.98,1106.38,-3.03,65.82,-65.83,-432,102,-44,0.69,-0.32,-0.43,0.48,80.44,-16.82,-63.87,28.70,314.82,-1990.48,1005.25,47.15,-55.40,-68.30,-463,181,-67,0.70,-0.31,-0.43,0.49,80.66,-17.21,-62.38,28.20,male1_walking1
124,4763739,296.75,-2000.00,985.35,16.20,-49.67,-68.63,-463,181,-67,0.70,-0.31,-0.43,0.49,80.86,-17.25,-62.36,28.71,-319.95,-1896.73,853.27,18.78,9.94,-56.78,-463,181,-67,0.69,-0.34,-0.40,0.50,79.83,-11.97,-62.51,28.20,male1_walking1
125,4763795,566.04,-2000.00,1063.48,17.07,-1.60,-59.91,-463,181,-67,0.71,-0.32,-0.41,0.48,78.00,-15.32,-61.34,28.74,-11.72,-2000.00,907.59,16.41,-15.47,-44.69,-402,167,-71,0.70,-0.34,-0.39,0.49,77.56,-12.87,-61.91,28.19,male1_walking1
126,4763850,554.69,-1974.55,1021.61,17.03,-12.51,-75.71,-402,167,-71,0.72,-0.32,-0.41,0.47,76.04,-16.16,-61.17,28.73,-64.33,-1960.02,880.37,13.73,-31.81,-40.40,-402,167,-71,0.71,-0.34,-0.39,0.48,76.44,-12.88,-62.14,28.16,male1_walking1
127,4763908,448.12,-2000.00,980.22,20.22,-29.50,-70.72,-402,167,-71,0.72,-0.33,-0.40,0.47,75.60,-15.53,-61.74,28.71,-235.41,-1954.77,824.89,12.43,-35.18,-35.66,-402,167,-71,0.70,-0.36,-0.39,0.48,76.11,-11.39,-62.92,28.18,male1_walking1
128,4763963,321.11,-1919.68,1013.79,23.12,-19.32,-68.53,-454,127,-65,0.71,-0.35,-0.39,0.48,75.94,-12.19,-61.98,28.72,-238.83,-1952.33,839.60,9.26,1.98,-38.70,-454,127,-65,0.69,-0.38,-0.37,0.49,76.03,-7.84,-63.00,28.19,male1_walking1
129,4764020,480.04,-1961.67,967.96,12.62,12.32,-73.92,-454,127,-65,0.71,-0.36,-0.38,0.47,74.54,-11.14,-62.58,28.71,-89.90,-2000.00,826.17,9.61,0.10,-51.93,-454,127,-65,0.70,-0.38,-0.37,0.48,74.52,-8.27,-63.69,28.17,male1_walking1
130,4764076,515.08,-2000.00,1007.87,5.53,-31.00,-63.48,-397,131,-69,0.71,-0.36,-0.39,0.46,74.04,-12.36,-63.23,28.72,-344.18,-2000.00,733.34,9.68,-35.33,-66.29,-397,131,-69,0.70,-0.39,-0.37,0.48,74.58,-8.79,-64.72,28.21,male1_walking1
131,4764132,171.20,-2000.00,896.91,2.26,-44.96,-62.45,-397,131,-69,0.70,-0.38,-0.38,0.47,74.71,-10.19,-64.92,28.75,-381.59,-2000.00,723.88,12.61,-20.60,-89.70,-397,131,-69,0.69,-0.40,-0.37,0.48,74.24,-7.40,-65.86,28.19,male1_walking1
132,4764188,169.56,-2000.00,1131.53,-14.50,-35.63,-33.26,-385,112,-57,0.70,-0.39,-0.37,0.48,74.38,-8.12,-64.65,28.71,-635.01,-2000.00,762.51,11.08,-2.82,-121.10,-385,112,-57,0.69,-0.41,-0.35,0.48,73.14,-4.92,-65.31,28.18,male1_walking1
133,4764245,-332.89,-2000.00,749.63,-42.04,-36.25,52.54,-385,112,-57,0.66,-0.44,-0.34,0.50,74.29,-0.59,-67.65,28.71,-426.94,-2000.00,-62.01,19.56,25.17,-154.95,-385,112,-57,0.66,-0.47,-0.36,0.46,71.15,-2.43,-72.59,28.17,male1_walking1
134,4764302,333.98,-2000.00,686.71,-27.42,-19.45,38.09,-385,112,-57,0.67,-0.46,-0.37,0.45,71.24,-4.66,-72.44,28.74,82.76,-2000.00,965.82,62.38,7.90,-122.28,-361,98,-71,0.70,-0.43,-0.36,0.44,69.38,-7.62,-67.95,28.17,male1_walking1
135,4764358,874.21,-2000.00,839.36,-51.52,49.46,76.95,-361,98,-71,0.70,-0.43,-0.37,0.43,69.34,-8.45,-69.32,28.71,1000.55,-1550.96,1094.85,32.67,74.64,-75.31,-361,98,-71,0.74,-0.39,-0.38,0.40,66.28,-14.21,-64.57,28.17,male1_walking1
136,4764413,1261.05,-2000.00,855.77,-49.56,-37.81,93.61,-361,98,-71,0.71,-0.39,-0.40,0.42,70.46,-14.30,-67.72,28.72,305.30,-1462.89,1047.61,-4.33,-30.94,64.76,-361,98,-98,0.71,-0.39,-0.37,0.46,72.70,-9.78,-64.72,28.16,male1_walking1
137,4764470,919.37,-1800.42,944.34,-8.53,-28.21,122.47,-361,98,-98,0.70,-0.38,-0.39,0.47,75.33,-10.19,-64.91,28.70,426.15,-1343.32,1111.21,-48.19,-6.35,151.12,-361,98,-98,0.69,-0.37,-0.36,0.50,77.10,-7.05,-62.77,28.19,male1_walking1
138,4764526,938.96,-1645.87,961.12,18.78,-9.58,129.52,-361,98,-98,0.69,-0.35,-0.38,0.51,78.83,-9.52,-61.65,28.71,401.79,-1382.81,1023.68,-77.61,-45.20,243.49,-361,98,-98,0.66,-0.36,-0.37,0.54,82.49,-5.43,-62.15,28.18,male1_walking1
139,4764581,787.72,-1498.29,979.31,23.73,-15.56,98.78,-358,98,-125,0.68,-0.33,-0.38,0.54,82.89,-9.61,-59.93,28.71,257.69,-1504.88,929.81,-100.43,-56.08,249.99,-358,98,-125,0.64,-0.35,-0.38,0.57,86.54,-4.94,-62.59,28.17,male1_walking1
140,4764637,534.91,-1694.95,997.13,19.47,21.77,69.60,-358,98,-125,0.66,-0.34,-0.38,0.56,84.91,-7.56,-60.85,28.71,137.88,-2000.00,684.63,-101.58,-65.61,249.99,-358,98,-125,0.61,-0.38,-0.40,0.57,88.60,-2.61,-66.55,28.18,male1_walking1
141,4764694,-55.85,-1877.32,271.12,36.58,34.81,59.82,-409,187,-118,0.63,-0.40,-0.40,0.54,84.18,-3.71,-68.61,28.70,-748.84,-1608.03,610.35,-49.58,-63.64,161.32,-409,187,-118,0.60,-0.44,-0.36,0.56,84.18,3.04,-69.19,28.17,male1_walking1
142,4764749,-1136.41,-2000.00,231.99,10.52,-37.80,27.92,-409,187,-118,0.60,-0.47,-0.34,0.55,80.90,6.42,-70.68,28.71,-489.26,-1710.02,982.06,42.16,32.66,-82.93,-409,187,-118,0.66,-0.44,-0.31,0.52,74.98,2.71,-64.43,28.17,male1_walking1
143,4764807,492.13,-1762.57,1437.87,-3.47,-0.04,-21.76,-464,100,-119,0.70,-0.39,-0.32,0.51,73.90,-3.04,-60.41,28.70,-328.06,-2000.00,-82.46,26.37,96.92,-32.29,-464,100,-119,0.67,-0.45,-0.32,0.49,71.78,0.65,-67.69,28.18,male1_walking1
144,4764862,420.29,-2000.00,237.67,-12.39,60.49,-43.16,-464,100,-119,0.67,-0.47,-0.36,0.44,69.59,-3.75,-72.32,28.71,349.18,-1894.23,889.83,45.21,37.60,-114.58,-464,100,-119,0.70,-0.44,-0.36,0.43,67.75,-7.44,-69.07,28.17,male1_walking1
145,4764918,1143.86,-1700.38,1259.09,15.10,135.65,-57.29,-464,100,-119,0.75,-0.40,-0.35,0.40,63.77,-12.03,-64.26,28.69,97.66,-2000.00,834.41,40.02,-60.31,-62.54,-429,215,-104,0.74,-0.40,-0.36,0.40,64.75,-11.70,-64.18,28.17,male1_walking1
146,4764976,167.91,-2000.00,1002.38,15.34,-28.93,-72.05,-429,215,-104,0.75,-0.40,-0.35,0.40,64.38,-11.96,-63.40,28.71,-174.74,-1910.64,930.11,20.83,30.96,-53.15,-429,215,-104,0.75,-0.41,-0.32,0.41,62.98,-8.49,-62.74,28.19,male1_walking1
147,4765032,654.48,-2000.00,1010.25,19.74,14.19,-64.34,-429,215,-104,0.76,-0.39,-0.34,0.39,61.40,-12.44,-61.93,28.71,61.16,-2000.00,836.67,12.40,-14.54,-41.07,-436,222,-104,0.75,-0.41,-0.33,0.39,61.92,-10.25,-63.29,28.19,male1_walking1
148,4765088,554.57,-1988.28,979.80,15.65,-11.47,-80.28,-436,222,-104,0.76,-0.39,-0.35,0.38,61.11,-13.60,-62.80,28.71,-157.47,-1943.12,835.51,11.18,-36.96,-36.30,-436,222,-104,0.75,-0.41,-0.33,0.40,62.26,-9.75,-63.91,28.17,male1_walking1
149,4765145,371.46,-1993.41,921.39,20.76,-29.91,-70.13,-436,222,-104,0.75,-0.40,-0.35,0.39,62.01,-12.13,-63.56,28.72,-330.51,-1924.01,734.62,9.69,-30.53,-38.76,-437,131,-116,0.72,-0.44,-0.32,0.43,64.56,-5.42,-65.60,28.21,male1_walking1
150,4765202,235.66,-1936.65,993.96,24.07,-9.86,-71.28,-437,131,-116,0.73,-0.42,-0.33,0.42,64.71,-6.66,-64.49,28.70,-207.58,-1948.91,808.35,7.10,11.17,-47.35,-437,131,-116,0.72,-0.44,-0.31,0.44,64.94,-3.29,-65.45,28.18,male1_walking1
151,4765257,579.22,-1969.54,1000.06,6.34,20.59,-76.61,-437,131,-116,0.73,-0.42,-0.33,0.41,63.91,-7.78,-64.74,28.73,-83.92,-2000.00,805.11,1.59,16.91,-53.79,-437,131,-116,0.72,-0.44,-0.32,0.42,64.17,-4.89,-65.98,28.17,male1_walking1
152,4765313,392.21,-2000.00,944.58,-7.17,0.53,-70.83,-441,216,-109,0.74,-0.42,-0.34,0.39,62.07,-9.45,-65.11,28.71,-406.62,-2000.00,636.78,4.79,-14.98,-73.07,-441,216,-109,0.73,-0.45,-0.32,0.40,61.81,-6.28,-66.73,28.18,male1_walking1
153,4765370,182.86,-2000.00,773.62,-9.96,-20.13,-63.71,-441,216,-109,0.74,-0.45,-0.33,0.39,61.16,-8.27,-67.29,28.69,-359.07,-2000.00,633.85,9.91,-0.18,-101.16,-441,216,-109,0.73,-0.46,-0.32,0.39,60.04,-6.19,-68.17,28.17,male1_walking1
154,4765426,188.11,-2000.00,1050.23,-18.84,-37.17,-17.27,-470,208,-125,0.73,-0.45,-0.32,0.39,60.78,-6.61,-67.09,28.73,-495.67,-2000.00,705.32,7.96,-18.08,-139.91,-470,208,-125,0.73,-0.46,-0.31,0.39,59.97,-5.02,-67.72,28.19,male1_walking1
155,4765482,-264.10,-2000.00,797.79,-45.02,-42.76,27.82,-470,208,-125,0.71,-0.48,-0.30,0.41,61.29,-1.40,-69.22,28.70,-591.49,-2000.00,142.70,0.37,28.65,-145.26,-470,208,-125,0.70,-0.52,-0.30,0.39,58.49,-0.87,-73.10,28.16,male1_walking1
156,4765539,320.98,-1968.75,1035.77,-45.36,37.88,34.23,-409,225,-98,0.73,-0.49,-0.29,0.37,55.70,-3.41,-69.74,28.70,128.36,-2000.00,1182.43,17.46,116.31,-107.25,-409,225,-98,0.77,-0.47,-0.27,0.33,50.64,-5.50,-65.56,28.17,male1_walking1
157,4765595,855.10,-2000.00,971.25,-54.63,94.79,72.59,-409,225,-98,0.77,-0.48,-0.27,0.32,49.39,-6.57,-66.82,28.70,860.17,-1486.15,1182.07,3.82,93.44,-84.46,-409,225,-98,0.80,-0.44,-0.28,0.28,45.96,-11.94,-62.78,28.18,male1_walking1
158,4765651,1108.89,-2000.00,991.82,-50.22,9.87,91.92,-409,225,-98,0.78,-0.46,-0.30,0.29,49.08,-11.80,-65.93,28.71,207.70,-1449.65,1166.56,-49.50,3.22,67.85,-415,235,-125,0.78,-0.46,-0.27,0.33,50.56,-7.34,-64.17,28.20,male1_walking1
159,4765707,831.24,-1804.08,1118.59,-9.37,17.72,121.27,-415,235,-125,0.78,-0.45,-0.28,0.34,52.35,-7.27,-63.54,28.72,321.23,-1440.19,1244.45,-83.52,20.58,141.63,-415,235,-125,0.77,-0.45,-0.26,0.37,53.80,-3.79,-62.48,28.17,male1_walking1
160,4765763,846.37,-1717.22,1112.24,11.95,53.31,131.45,-415,235,-125,0.78,-0.43,-0.26,0.37,54.27,-4.94,-60.76,28.72,406.68,-1536.32,1192.44,-120.45,21.13,229.15,-415,211,-121,0.75,-0.45,-0.25,0.41,57.36,-0.40,-62.27,28.18,male1_walking1
161,4765820,777.10,-1674.01,996.28,11.05,59.87,101.49,-415,211,-121,0.77,-0.44,-0.26,0.40,56.82,-3.21,-61.00,28.69,353.03,-1675.17,986.94,-135.96,24.91,249.99,-415,211,-121,0.73,-0.47,-0.26,0.42,59.42,1.19,-64.35,28.18,male1_walking1
162,4765876,688.96,-1763.43,778.32,12.15,68.96,76.74,-415,211,-121,0.75,-0.45,-0.27,0.39,57.42,-2.77,-63.95,28.70,300.84,-1982.85,837.22,-90.74,-49.11,249.99,-415,211,-121,0.72,-0.48,-0.27,0.43,60.96,0.95,-66.96,28.20,male1_walking1
163,4765933,171.81,-1975.16,414.43,51.90,30.94,65.01,-461,213,92,0.74,-0.46,-0.27,0.40,58.42,-1.76,-65.22,28.70,-447.27,-1898.32,688.66,-22.80,-42.41,188.96,-461,213,92,0.72,-0.48,-0.24,0.44,59.98,3.75,-64.92,28.18,male1_walking1
164,4765988,-940.31,-2000.00,806.46,40.73,-23.85,18.63,-461,213,92,0.74,-0.47,-0.20,0.44,58.55,6.66,-61.19,28.73,-485.78,-1705.14,800.96,32.26,78.75,-20.81,-461,213,92,0.76,-0.46,-0.17,0.42,53.93,6.82,-58.65,28.16,male1_walking1
165,4766043,-228.52,-2000.00,1255.86,-16.62,40.58,9.02,-468,223,72,0.78,-0.45,-0.17,0.40,50.91,5.30,-56.81,28.71,-164.86,-2000.00,271.36,44.31,139.95,-56.21,-468,223,72,0.79,-0.48,-0.16,0.35,45.24,4.62,-61.06,28.16,male1_walking1
166,4766100,-78.74,-2000.00,-185.79,-31.44,157.94,-21.27,-468,223,72,0.76,-0.55,-0.16,0.29,39.19,4.15,-70.17,28.71,385.44,-2000.00,992.74,52.64,79.10,-92.83,-468,223,72,0.81,-0.51,-0.18,0.24,34.65,-2.34,-64.78,28.19,male1_walking1
167,4766155,1274.84,-1750.37,857.18,3.17,107.44,-58.16,-415,263,9,0.83,-0.49,-0.22,0.17,30.66,-11.57,-63.99,28.69,398.32,-1842.16,758.79,45.49,-58.72,-52.58,-415,263,9,0.82,-0.49,-0.24,0.18,32.70,-12.44,-65.10,28.18,male1_walking1
168,4766211,274.17,-2000.00,1003.11,18.58,-77.67,-55.32,-415,263,9,0.82,-0.49,-0.25,0.19,34.93,-12.42,-65.44,28.70,-293.70,-1941.65,999.57,18.04,-4.64,-51.98,-415,263,9,0.81,-0.49,-0.21,0.22,35.02,-7.81,-64.88,28.19,male1_walking1
169,4766267,631.71,-2000.00,1187.01,14.07,0.60,-57.98,-415,263,9,0.83,-0.47,-0.23,0.20,34.39,-11.18,-63.19,28.69,43.58,-2000.00,828.37,10.02,1.85,-31.98,-470,-120,43,0.79,-0.51,-0.15,0.30,38.97,4.06,-64.29,28.17,male1_walking1
170,4766326,518.98,-1998.90,983.09,15.98,-6.61,-76.10,-470,-120,43,0.78,-0.52,-0.15,0.31,40.40,4.45,-65.19,28.72,-201.54,-1938.48,782.47,0.10,-21.50,-27.64,-470,-120,43,0.76,-0.54,-0.13,0.34,42.29,10.25,-67.07,28.16,male1_walking1
171,4766382,316.47,-1968.51,752.62,14.72,-6.81,-70.98,-470,-120,43,0.75,-0.55,-0.15,0.33,42.72,7.66,-68.83,28.71,-372.92,-1898.62,565.00,-0.47,-11.42,-30.03,-456,-120,0,0.72,-0.57,-0.13,0.36,44.14,13.36,-71.42,28.17,male1_walking1
172,4766438,198.43,-2000.00,957.76,10.39,9.67,-67.25,-456,-120,0,0.73,-0.56,-0.15,0.36,44.59,10.54,-70.81,28.69,-339.05,-1935.36,759.70,1.41,34.63,-36.33,-456,-120,0,0.72,-0.58,-0.13,0.37,44.63,14.15,-71.70,28.18,male1_walking1
173,4766494,430.73,-1949.40,968.14,-3.35,48.20,-70.88,-456,-120,0,0.73,-0.56,-0.16,0.35,43.93,9.27,-71.40,28.69,-292.60,-1985.90,678.65,-1.11,32.02,-52.06,-349,-118,4,0.72,-0.58,-0.13,0.37,44.14,13.96,-72.45,28.18,male1_walking1
174,4766550,354.19,-2000.00,834.41,-13.15,32.89,-59.81,-349,-118,4,0.72,-0.58,-0.15,0.35,44.00,11.03,-72.86,28.70,-335.08,-1917.85,476.26,3.09,18.55,-69.76,-349,-118,4,0.70,-0.60,-0.13,0.36,43.88,14.32,-74.77,28.19,male1_walking1
175,4766605,381.23,-2000.00,664.73,-24.83,15.05,-39.76,-349,-118,4,0.71,-0.59,-0.16,0.35,44.07,10.66,-75.81,28.70,-73.24,-2000.00,726.87,9.13,26.93,-88.11,-349,-118,4,0.71,-0.59,-0.15,0.35,44.01,11.18,-74.79,28.19,male1_walking1
176,4766661,434.39,-2000.00,1251.83,-36.30,-9.28,-20.87,-302,-118,-1,0.72,-0.56,-0.16,0.37,46.61,10.87,-71.46,28.69,-421.45,-2000.00,856.69,-9.41,10.60,-110.07,-302,-118,-1,0.71,-0.57,-0.14,0.39,47.36,14.36,-71.32,28.17,male1_walking1
177,4766718,-221.68,-2000.00,1122.44,-54.06,-1.69,3.81,-302,-118,-1,0.70,-0.57,-0.13,0.42,49.67,17.60,-70.63,28.72,-689.82,-2000.00,407.96,-15.91,37.27,-150.47,-302,-118,-1,0.68,-0.60,-0.12,0.41,47.64,18.60,-74.92,28.17,male1_walking1
178,4766774,55.30,-2000.00,803.89,-61.81,20.13,28.43,-226,-96,-13,0.67,-0.61,-0.13,0.41,48.99,18.63,-75.90,28.69,-40.53,-1963.81,743.65,-12.22,62.27,-96.81,-226,-96,-13,0.68,-0.60,-0.15,0.40,48.07,16.16,-75.99,28.20,male1_walking1
179,4766830,593.26,-2000.00,1233.34,-76.39,107.60,55.08,-226,-96,-13,0.69,-0.59,-0.14,0.39,47.93,15.58,-74.70,28.71,513.06,-1783.39,1439.58,-32.26,155.37,-94.12,-226,-96,-13,0.72,-0.57,-0.14,0.37,45.90,12.55,-71.30,28.17,male1_walking1
180,4766886,1080.57,-2000.00,1272.64,-73.53,111.16,82.19,-470,-92,-108,0.71,-0.57,-0.16,0.37,47.07,11.01,-72.46,28.70,135.62,-1604.86,1422.61,-81.63,70.85,9.21,-470,-92,-108,0.71,-0.56,-0.15,0.39,48.92,12.98,-70.45,28.17,male1_walking1
181,4766943,950.32,-1939.58,1385.44,-24.89,81.51,114.20,-470,-92,-108,0.71,-0.55,-0.16,0.41,51.32,12.42,-69.00,28.70,339.60,-1473.51,1656.68,-120.69,77.39,114.08,-470,-92,-108,0.70,-0.54,-0.15,0.44,54.69,15.37,-66.76,28.14,male1_walking1
182,4766999,876.53,-1764.28,1375.12,8.89,136.12,130.16,-470,-92,-108,0.71,-0.52,-0.15,0.45,56.19,14.72,-64.52,28.69,219.73,-1703.86,1553.83,-181.47,145.45,205.96,-470,321,-313,0.71,-0.53,-0.14,0.45,55.10,16.05,-64.92,28.17,male1_walking1
183,4767056,707.15,-1917.11,1224.12,13.82,187.44,104.66,-470,321,-313,0.74,-0.51,-0.14,0.41,50.88,11.85,-63.08,28.70,70.62,-2000.00,1456.79,-198.58,216.84,218.54,-470,321,-313,0.72,-0.54,-0.12,0.41,49.14,16.25,-66.73,28.18,male1_walking1
184,4767112,713.44,-2000.00,884.52,-8.74,249.99,108.61,-470,321,-313,0.74,-0.55,-0.12,0.36,43.78,12.62,-68.32,28.70,429.57,-2000.00,1293.95,-138.05,249.99,182.79,-361,372,-553,0.73,-0.57,-0.12,0.37,43.88,14.00,-70.25,28.20,male1_walking1
185,4767169,633.36,-2000.00,833.19,20.25,212.92,81.89,-361,372,-553,0.74,-0.56,-0.14,0.35,43.03,10.37,-70.28,28.70,95.52,-1961.18,1174.74,-37.52,84.66,149.69,-361,372,-553,0.73,-0.55,-0.14,0.38,46.95,11.93,-68.59,28.18,male1_walking1
186,4767225,409.73,-1947.69,891.91,49.11,64.09,67.26,-361,372,-553,0.74,-0.52,-0.17,0.38,49.45,8.08,-66.70,28.70,215.94,-1817.08,968.26,32.02,24.36,111.38,-361,372,-553,0.74,-0.50,-0.19,0.41,52.88,7.47,-64.62,28.16,male1_walking1
187,4767281,437.87,-1809.63,986.82,66.57,14.41,31.78,-415,345,-853,0.75,-0.46,-0.23,0.42,58.05,2.45,-61.83,28.71,18.55,-1882.32,924.74,38.56,34.55,71.96,-415,345,-853,0.73,-0.45,-0.24,0.45,61.33,3.64,-61.23,28.19,male1_walking1
188,4767337,291.81,-1818.48,1089.78,42.83,95.91,-16.71,-415,345,-853,0.75,-0.43,-0.24,0.45,61.26,1.15,-59.52,28.70,-0.55,-1730.90,722.47,3.84,183.14,32.14,-415,345,-853,0.74,-0.46,-0.23,0.44,59.75,3.86,-61.55,28.17,male1_walking1
189,4767393,252.93,-1862.98,742.19,21.03,215.32,-73.27,-453,-10,-961,0.73,-0.46,-0.26,0.44,61.83,1.24,-63.29,28.69,-344.85,-2000.00,-704.59,57.30,147.71,-39.98,-453,-10,-961,0.67,-0.51,-0.29,0.45,64.61,3.95,-71.88,28.19,male1_walking1
190,4767448,150.63,-2000.00,-597.78,-5.46,8.44,-64.01,-453,-10,-961,0.61,-0.54,-0.37,0.44,70.62,1.49,-81.49,28.70,209.96,-1861.88,804.69,25.07,-44.78,-86.69,-453,-10,-961,0.62,-0.48,-0.39,0.47,76.19,-1.77,-77.31,28.17,male1_walking1
191,4767505,524.66,-1616.88,1431.88,-10.44,47.16,-49.94,-415,-92,-961,0.65,-0.41,-0.40,0.50,79.66,-6.03,-69.53,28.69,-56.76,-2000.00,652.77,31.37,26.16,-37.86,-415,-92,-961,0.63,-0.40,-0.40,0.53,82.74,-4.59,-69.21,28.18,male1_walking1
192,4767560,456.85,-2000.00,690.00,13.88,40.66,-57.29,-415,-92,-961,0.63,-0.38,-0.42,0.52,84.75,-7.80,-69.23,28.69,2.08,-2000.00,851.56,19.44,43.80,-39.96,-415,-92,-961,0.63,-0.38,-0.41,0.54,86.07,-6.22,-67.86,28.17,male1_walking1
193,4767616,529.85,-2000.00,1016.17,19.99,12.82,-56.92,-415,-92,-961,0.64,-0.34,-0.43,0.54,87.56,-9.63,-65.90,28.70,-210.88,-1967.10,790.16,12.95,-2.96,-36.82,-456,-92,-958,0.62,-0.35,-0.42,0.57,89.45,-6.33,-66.07,28.16,male1_walking1
194,4767673,400.33,-2000.00,891.54,11.05,14.32,-61.87,-456,-92,-958,0.62,-0.34,-0.43,0.56,89.99,-8.81,-65.64,28.71,-225.22,-1952.88,767.15,10.03,-10.31,-39.76,-456,-92,-958,0.61,-0.35,-0.42,0.58,91.35,-5.84,-66.13,28.17,male1_walking1
195,4767730,335.63,-1957.09,918.82,8.91,1.14,-61.21,-456,-92,-958,0.61,-0.33,-0.43,0.57,91.70,-8.33,-65.43,28.71,-197.88,-1930.54,727.78,10.16,11.67,-44.97,-361,-120,-961,0.60,-0.35,-0.42,0.58,92.26,-5.64,-66.13,28.17,male1_walking1
196,4767785,495.79,-1963.50,911.80,5.81,33.35,-63.34,-361,-120,-961,0.61,-0.33,-0.43,0.57,91.80,-9.04,-65.54,28.68,-27.28,-1952.45,760.13,8.40,27.66,-47.08,-361,-120,-961,0.61,-0.34,-0.43,0.58,91.88,-7.37,-66.00,28.16,male1_walking1
197,4767842,561.77,-1963.75,1012.63,-2.88,39.66,-73.33,-361,-120,-961,0.63,-0.32,-0.44,0.56,91.07,-10.99,-64.90,28.71,-44.13,-2000.00,797.24,1.01,26.15,-51.36,-358,-120,-978,0.62,-0.33,-0.43,0.57,91.22,-8.81,-65.58,28.17,male1_walking1
198,4767898,451.29,-2000.00,898.07,-4.81,10.68,-67.99,-358,-120,-978,0.62,-0.32,-0.44,0.56,91.50,-11.35,-65.64,28.69,-428.10,-1883.79,496.03,-2.54,-9.32,-74.43,-358,-120,-978,0.59,-0.36,-0.44,0.57,92.64,-6.21,-68.79,28.17,male1_walking1
199,4767960,283.69,-2000.00,914.79,-22.00,-7.72,-63.10,-358,-120,-978,0.60,-0.34,-0.45,0.57,93.21,-8.34,-68.43,28.71,-199.65,-2000.00,794.98,3.55,16.14,-94.44,-358,-120,-978,0.60,-0.35,-0.44,0.57,92.74,-6.95,-68.12,28.18,male1_walking1
200,4768017,90.09,-2000.00,1141.30,-31.15,-28.29,-10.90,-358,170,-985,0.61,-0.36,-0.42,0.57,89.48,-6.05,-66.73,28.70,-634.16,-2000.00,671.26,-8.19,-10.67,-137.89,-358,170,-985,0.62,-0.39,-0.40,0.55,86.17,-3.65,-68.05,28.17,male1_walking1
201,4768072,-291.81,-2000.00,709.05,-52.78,-18.52,28.00,-358,170,-985,0.60,-0.43,-0.39,0.55,85.38,0.24,-70.42,28.70,-747.92,-2000.00,876.28,-2.85,28.66,-139.04,-358,170,-985,0.61,-0.44,-0.36,0.55,82.21,1.95,-69.48,28.19,male1_walking1
202,4768130,138.37,-2000.00,1154.17,-52.75,111.31,36.24,-321,98,-971,0.63,-0.44,-0.35,0.54,80.32,2.53,-68.31,28.70,490.23,-2000.00,1380.68,2.27,177.94,-118.50,-321,98,-971,0.67,-0.41,-0.34,0.51,75.86,-2.31,-64.96,28.17,male1_walking1
203,4768185,1071.66,-2000.00,1098.51,-57.71,120.73,79.05,-321,98,-971,0.68,-0.40,-0.36,0.50,76.05,-5.44,-65.53,28.68,558.96,-1681.46,1106.20,-15.56,101.16,-69.58,-321,98,-971,0.70,-0.38,-0.37,0.48,74.57,-8.99,-63.24,28.17,male1_walking1
204,4768243,917.79,-2000.00,1136.17,-44.17,59.97,101.96,-361,-7,-988,0.68,-0.36,-0.39,0.50,78.59,-9.72,-63.65,28.71,257.39,-1481.57,1372.38,-78.18,58.38,64.34,-361,-7,-988,0.68,-0.35,-0.37,0.53,80.11,-7.27,-61.21,28.18,male1_walking1
205,4768298,824.52,-1899.05,1195.25,-3.27,66.43,127.39,-361,-7,-988,0.67,-0.34,-0.37,0.55,82.74,-7.23,-60.34,28.69,365.05,-1524.54,1340.52,-97.17,52.54,132.38,-361,-7,-988,0.65,-0.35,-0.36,0.57,84.59,-4.58,-59.88,28.18,male1_walking1
206,4768355,862.73,-1839.78,1075.13,7.03,86.83,139.15,-361,-7,-988,0.65,-0.34,-0.37,0.57,85.89,-5.07,-59.60,28.69,418.46,-1485.17,1185.55,-122.86,30.18,203.90,-370,-101,-939,0.62,-0.35,-0.37,0.60,90.21,-2.19,-60.86,28.19,male1_walking1
207,4768411,835.02,-1676.76,947.39,12.90,91.31,112.13,-370,-101,-939,0.62,-0.33,-0.38,0.60,91.01,-4.27,-60.41,28.71,516.66,-1519.10,1096.19,-137.73,53.76,249.99,-370,-101,-939,0.59,-0.35,-0.38,0.62,94.06,-0.77,-62.63,28.20,male1_walking1
208,4768467,909.97,-1631.10,726.87,5.58,83.15,71.66,-370,-101,-939,0.60,-0.33,-0.41,0.60,93.42,-5.10,-63.32,28.70,450.56,-1797.97,709.96,-107.01,-2.40,249.99,-414,-104,-986,0.55,-0.36,-0.42,0.62,97.17,-1.07,-67.93,28.20,male1_walking1
209,4768524,543.88,-1937.01,568.54,41.72,77.20,52.24,-414,-104,-986,0.57,-0.36,-0.43,0.60,95.38,-2.76,-68.25,28.70,-31.62,-1999.69,822.75,-48.93,-91.22,221.42,-414,-104,-986,0.52,-0.38,-0.42,0.64,99.85,2.96,-69.48,28.18,male1_walking1
210,4768579,-841.19,-1994.75,895.57,76.29,-94.88,7.73,-414,-104,-986,0.50,-0.39,-0.39,0.67,101.39,7.17,-66.21,28.70,-691.65,-1767.21,541.20,32.43,-56.59,-12.86,-470,9,-975,0.50,-0.41,-0.37,0.66,99.12,9.81,-66.99,28.17,male1_walking1
211,4768636,-191.28,-1969.73,964.84,-0.08,-110.44,-3.56,-470,9,-975,0.52,-0.39,-0.38,0.66,99.33,6.85,-65.60,28.71,-635.25,-2000.00,-111.76,24.18,21.86,-32.84,-470,9,-975,0.51,-0.44,-0.39,0.63,94.98,8.98,-71.86,28.18,male1_walking1
212,4768692,-605.53,-2000.00,-64.03,-38.73,-0.81,-18.74,-470,9,-975,0.49,-0.49,-0.40,0.59,92.06,10.39,-78.62,28.69,14.77,-2000.00,991.52,42.45,83.85,-115.07,-470,9,-975,0.56,-0.45,-0.39,0.57,88.30,4.59,-73.70,28.18,male1_walking1
213,4768748,1303.59,-1600.28,1139.04,-24.99,245.64,-70.53,-463,-113,-988,0.64,-0.40,-0.41,0.52,82.29,-5.84,-69.93,28.71,463.93,-1991.70,755.68,43.05,-47.54,-65.28,-463,-113,-988,0.63,-0.37,-0.43,0.53,86.51,-9.29,-68.80,28.16,male1_walking1
214,4768805,338.13,-2000.00,850.10,13.73,-48.59,-72.74,-463,-113,-988,0.62,-0.34,-0.45,0.54,89.93,-11.51,-68.00,28.68,-409.18,-1833.13,946.59,21.47,27.31,-56.01,-463,-113,-988,0.61,-0.35,-0.42,0.57,90.24,-6.58,-65.74,28.19,male1_walking1
215,4768861,500.31,-2000.00,1012.82,18.96,30.17,-63.86,-456,-51,-988,0.63,-0.33,-0.42,0.56,89.27,-9.81,-64.19,28.69,-37.54,-2000.00,769.35,23.41,14.08,-45.78,-456,-51,-988,0.63,-0.34,-0.42,0.57,89.49,-8.04,-64.67,28.18,male1_walking1
216,4768917,475.46,-1989.14,1007.51,20.91,2.74,-70.66,-456,-51,-988,0.64,-0.32,-0.43,0.56,89.39,-11.09,-63.49,28.70,-148.86,-1932.31,861.94,21.35,-10.12,-44.60,-456,-51,-988,0.63,-0.33,-0.41,0.57,90.09,-8.13,-63.53,28.18,male1_walking1
217,4768973,502.44,-1973.45,912.78,16.28,-3.27,-63.92,-463,-55,-981,0.64,-0.31,-0.43,0.56,90.21,-11.29,-63.44,28.69,-172.18,-1963.62,783.33,19.80,-20.10,-41.45,-463,-55,-981,0.62,-0.33,-0.42,0.57,91.09,-8.39,-64.20,28.16,male1_walking1
218,4769030,383.00,-1931.76,1000.61,26.69,-22.40,-60.98,-463,-55,-981,0.63,-0.31,-0.43,0.57,91.37,-10.79,-62.93,28.70,-93.08,-1944.76,853.33,16.57,-3.68,-43.49,-463,-55,-981,0.62,-0.32,-0.42,0.58,91.43,-8.43,-63.32,28.19,male1_walking1
219,4769086,615.17,-1957.52,1031.25,14.34,-4.08,-69.14,-463,-55,-981,0.64,-0.30,-0.43,0.56,90.92,-12.56,-62.45,28.69,10.44,-1989.14,888.12,11.22,-7.96,-45.67,-442,-24,-988,0.63,-0.31,-0.42,0.57,90.66,-10.40,-63.05,28.19,male1_walking1
220,4769143,618.41,-2000.00,1010.01,12.02,-18.74,-68.37,-442,-24,-988,0.64,-0.29,-0.44,0.56,90.32,-13.82,-62.69,28.70,-252.99,-2000.00,794.07,11.98,-42.19,-51.40,-442,-24,-988,0.63,-0.32,-0.43,0.57,91.11,-10.18,-64.01,28.18,male1_walking1
221,4769200,72.27,-1929.50,913.02,10.26,-66.34,-55.62,-442,-24,-988,0.62,-0.31,-0.43,0.57,92.20,-10.09,-64.09,28.68,-460.75,-1951.90,756.16,13.58,-37.42,-76.59,-442,-10,-988,0.61,-0.34,-0.42,0.58,91.91,-6.48,-65.02,28.19,male1_walking1
222,4769255,344.79,-2000.00,1036.80,-5.72,-37.88,-39.17,-442,-10,-988,0.62,-0.32,-0.43,0.58,91.98,-8.63,-64.55,28.70,-355.10,-2000.00,869.38,12.25,-35.52,-109.92,-442,-10,-988,0.61,-0.34,-0.42,0.58,91.25,-6.95,-64.70,28.17,male1_walking1
223,4769313,-89.05,-2000.00,969.18,-18.61,-46.88,-9.28,-442,-10,-988,0.60,-0.35,-0.41,0.59,92.13,-5.14,-65.20,28.71,-785.16,-2000.00,510.31,0.92,-16.43,-142.60,-415,-120,-988,0.58,-0.38,-0.41,0.59,92.23,-1.95,-67.90,28.17,male1_walking1
224,4769369,30.94,-2000.00,13.43,-55.95,-9.01,48.86,-415,-120,-988,0.54,-0.41,-0.45,0.58,94.38,-0.54,-75.29,28.69,73.55,-1917.48,672.36,46.36,-22.33,-138.98,-415,-120,-988,0.56,-0.38,-0.46,0.57,94.52,-4.76,-72.81,28.18,male1_walking1
225,4769425,515.56,-2000.00,1036.87,-53.67,11.22,54.25,-415,-120,-988,0.57,-0.37,-0.46,0.58,95.15,-5.47,-71.51,28.69,420.23,-2000.00,1206.91,24.77,112.60,-87.30,-415,-120,-988,0.61,-0.34,-0.43,0.57,91.40,-8.06,-66.83,28.18,male1_walking1
226,4769482,1219.85,-2000.00,945.13,-47.37,28.21,92.45,-361,-78,-988,0.61,-0.33,-0.46,0.56,92.47,-11.41,-67.80,28.69,445.80,-1460.27,1039.61,26.88,-2.80,-26.62,-361,-78,-988,0.63,-0.30,-0.44,0.57,91.96,-12.88,-63.63,28.18,male1_walking1
227,4769537,890.20,-1871.64,1018.74,-13.34,-21.26,103.98,-361,-78,-988,0.62,-0.29,-0.45,0.57,94.06,-13.31,-63.85,28.68,237.18,-1435.24,1138.24,-39.18,29.72,104.68,-361,-78,-988,0.62,-0.30,-0.42,0.60,93.63,-8.85,-61.73,28.16,male1_walking1
228,4769595,901.12,-1787.35,1004.03,10.45,28.25,136.22,-361,-78,-988,0.61,-0.29,-0.42,0.60,94.66,-9.25,-61.31,28.68,471.25,-1383.54,1115.36,-72.95,5.02,180.83,-388,-116,-951,0.59,-0.30,-0.41,0.62,96.78,-6.38,-60.92,28.18,male1_walking1
229,4769652,901.31,-1642.64,878.72,30.37,20.05,117.58,-388,-116,-951,0.60,-0.28,-0.42,0.62,97.65,-8.48,-60.46,28.69,449.46,-1450.38,994.81,-84.23,-38.88,249.99,-388,-116,-951,0.56,-0.30,-0.42,0.65,101.14,-4.53,-62.00,28.19,male1_walking1
230,4769708,707.40,-1567.20,833.56,21.86,-6.93,70.43,-388,-116,-951,0.57,-0.28,-0.43,0.64,100.84,-7.66,-61.43,28.69,271.67,-1729.37,966.92,-83.51,-55.60,249.99,-412,-72,-988,0.53,-0.32,-0.43,0.66,103.29,-2.05,-64.17,28.19,male1_walking1
231,4769765,440.61,-1970.03,865.78,49.88,-5.04,62.43,-412,-72,-988,0.55,-0.32,-0.42,0.65,101.60,-3.03,-63.35,28.70,97.84,-2000.00,692.02,-56.15,-119.24,249.99,-412,-72,-988,0.50,-0.35,-0.43,0.67,105.30,1.77,-67.04,28.18,male1_walking1
232,4769821,-503.97,-1940.73,795.10,98.58,-78.19,19.32,-412,-72,-988,0.50,-0.35,-0.40,0.68,104.45,4.76,-64.36,28.69,-1497.56,-1774.54,221.98,-2.56,-98.43,69.40,-461,-36,-983,0.45,-0.43,-0.37,0.69,103.57,14.57,-68.56,28.17,male1_walking1
233,4769878,-494.87,-1976.62,614.62,-11.25,-56.89,17.20,-461,-36,-983,0.46,-0.44,-0.38,0.67,101.51,13.87,-69.65,28.70,-165.16,-1831.73,783.08,52.20,70.22,-112.96,-461,-36,-983,0.52,-0.42,-0.37,0.64,95.68,8.92,-67.92,28.19,male1_walking1
234,4769934,517.15,-2000.00,1434.27,-25.87,91.96,-67.15,-461,-36,-983,0.58,-0.39,-0.37,0.61,91.63,2.25,-65.21,28.71,-86.85,-2000.00,231.32,24.02,139.21,-74.97,-461,-36,-983,0.59,-0.42,-0.38,0.57,87.05,1.93,-69.77,28.18,male1_walking1
235,4769990,804.44,-2000.00,1069.64,5.83,61.92,-65.36,-470,-48,-988,0.63,-0.38,-0.41,0.55,86.08,-5.69,-67.45,28.68,421.45,-1543.70,1236.27,36.71,24.94,-86.92,-470,-48,-988,0.65,-0.33,-0.40,0.55,85.85,-9.21,-62.32,28.17,male1_walking1
236,4770046,975.16,-1816.47,1138.18,23.59,-44.38,-70.49,-470,-48,-988,0.67,-0.28,-0.43,0.54,87.63,-16.21,-60.63,28.68,-102.36,-2000.00,813.11,21.81,-52.57,-68.38,-470,-48,-988,0.65,-0.29,-0.43,0.55,89.58,-13.52,-62.17,28.17,male1_walking1
237,4770103,412.54,-1852.78,982.67,32.56,-52.71,-77.21,-470,-44,-988,0.65,-0.27,-0.44,0.56,90.58,-15.63,-61.26,28.69,-119.93,-1989.99,894.23,26.58,35.92,-37.87,-470,-44,-988,0.64,-0.30,-0.42,0.57,89.82,-11.31,-61.48,28.18,male1_walking1
238,4770159,530.76,-2000.00,1045.65,22.99,-4.07,-65.08,-470,-44,-988,0.65,-0.29,-0.43,0.56,89.64,-13.59,-60.93,28.69,-131.96,-1949.89,939.27,20.66,-27.43,-41.19,-470,-44,-988,0.64,-0.30,-0.41,0.57,90.49,-10.34,-61.33,28.18,male1_walking1
239,4770216,508.24,-1976.14,1018.07,24.50,-28.66,-61.86,-442,-58,-988,0.64,-0.28,-0.43,0.57,91.01,-13.27,-61.01,28.69,-218.87,-1975.89,867.55,18.12,-44.98,-39.36,-442,-58,-988,0.63,-0.30,-0.42,0.58,92.09,-9.95,-62.04,28.17,male1_walking1
240,4770272,299.62,-1969.85,966.74,33.78,-41.63,-65.61,-442,-58,-988,0.63,-0.29,-0.43,0.58,92.49,-11.56,-61.63,28.70,-248.23,-1897.58,854.37,16.98,-21.78,-41.26,-442,-58,-988,0.62,-0.32,-0.41,0.59,92.65,-7.82,-62.35,28.19,male1_walking1
241,4770329,514.10,-1950.56,1055.79,21.77,-23.06,-62.34,-442,-58,-988,0.63,-0.29,-0.42,0.58,92.37,-11.28,-61.47,28.67,-11.66,-1957.15,859.50,13.14,-10.96,-47.04,-400,100,-956,0.63,-0.32,-0.41,0.57,89.81,-9.17,-62.46,28.18,male1_walking1
242,4770385,636.96,-1948.00,1050.60,6.09,-24.28,-63.96,-400,100,-956,0.65,-0.30,-0.42,0.55,87.81,-12.97,-61.99,28.70,-122.07,-2000.00,886.66,14.21,-26.45,-49.64,-400,100,-956,0.65,-0.33,-0.41,0.55,86.92,-10.14,-62.77,28.18,male1_walking1
243,4770442,222.72,-1969.18,990.17,16.09,-67.81,-55.92,-400,100,-956,0.65,-0.32,-0.42,0.55,87.12,-11.19,-62.65,28.67,-551.76,-1961.06,805.11,16.78,-59.84,-73.59,-392,105,-934,0.64,-0.35,-0.40,0.56,86.86,-6.80,-63.71,28.19,male1_walking1
244,4770498,99.98,-2000.00,1074.89,-0.09,-50.01,-54.15,-392,105,-934,0.64,-0.34,-0.40,0.56,86.54,-7.55,-63.22,28.69,-613.65,-2000.00,880.19,16.78,-12.27,-107.96,-392,105,-934,0.64,-0.37,-0.38,0.56,84.86,-4.16,-63.49,28.18,male1_walking1
245,4770554,-49.68,-2000.00,970.89,-11.17,-13.70,-9.80,-392,105,-934,0.64,-0.38,-0.37,0.56,84.84,-3.03,-64.00,28.68,-596.13,-2000.00,100.77,21.16,-4.83,-147.45,-361,102,-904,0.62,-0.42,-0.39,0.54,83.10,-1.54,-69.67,28.18,male1_walking1
246,4770611,464.60,-2000.00,-78.49,-45.45,-48.70,52.15,-361,102,-904,0.59,-0.44,-0.44,0.52,85.54,-3.74,-76.75,28.68,191.47,-1898.68,542.36,72.23,-64.15,-139.22,-361,102,-904,0.61,-0.40,-0.45,0.51,85.98,-8.43,-74.17,28.18,male1_walking1
247,4770668,652.65,-2000.00,847.11,-52.94,-30.39,59.31,-361,102,-904,0.61,-0.39,-0.46,0.51,86.78,-9.48,-73.90,28.71,628.42,-1932.98,1132.45,54.69,59.43,-81.54,-334,98,-961,0.66,-0.35,-0.44,0.50,83.09,-13.11,-67.76,28.16,male1_walking1
248,4770724,1445.25,-2000.00,796.94,-46.59,-26.14,85.11,-334,98,-961,0.66,-0.34,-0.47,0.49,85.03,-16.70,-69.55,28.70,511.47,-1411.13,942.87,49.01,-77.96,12.28,-334,98,-961,0.67,-0.30,-0.46,0.51,86.09,-17.36,-65.07,28.17,male1_walking1
249,4770780,998.05,-1809.63,864.99,-5.73,-83.21,108.86,-334,98,-961,0.65,-0.29,-0.47,0.52,88.78,-18.02,-66.13,28.69,484.07,-1338.44,1007.26,4.45,-44.85,144.33,-334,98,-961,0.65,-0.30,-0.44,0.55,89.18,-14.39,-63.29,28.19,male1_walking1
250,4770836,939.70,-1699.10,854.00,21.61,-64.35,128.36,-373,-114,-862,0.62,-0.27,-0.46,0.57,94.80,-15.46,-63.54,28.71,334.66,-1377.99,883.36,-25.41,-72.77,221.06,-373,-114,-862,0.59,-0.28,-0.45,0.61,98.78,-10.42,-63.61,28.16,male1_walking1
251,4770893,825.32,-1523.19,984.31,38.13,-49.36,124.21,-373,-114,-862,0.59,-0.25,-0.45,0.62,100.81,-11.94,-61.20,28.70,290.65,-1482.36,949.89,-62.27,-45.44,249.99,-373,-114,-862,0.55,-0.29,-0.43,0.65,103.57,-5.71,-62.69,28.18,male1_walking1
252,4770950,656.92,-1381.10,1096.31,41.98,-26.41,76.90,-459,-120,-826,0.57,-0.25,-0.42,0.66,103.14,-8.57,-58.40,28.69,301.39,-2000.00,941.59,-78.78,-100.56,249.99,-459,-120,-826,0.52,-0.28,-0.44,0.67,107.22,-4.12,-62.75,28.19,male1_walking1
253,4771007,193.54,-2000.00,1039.55,67.04,-43.93,72.07,-459,-120,-826,0.53,-0.28,-0.42,0.68,106.53,-3.11,-60.88,28.70,-128.54,-1710.08,412.72,-64.38,-158.99,220.61,-459,-120,-826,0.47,-0.33,-0.44,0.69,110.66,1.89,-66.91,28.17,male1_walking1
254,4771063,-1982.73,-2000.00,325.01,-4.30,-67.83,36.61,-233,-61,-715,0.42,-0.42,-0.41,0.70,107.87,13.53,-70.44,28.69,-736.15,-1628.23,540.10,27.23,37.47,-60.81,-233,-61,-715,0.45,-0.44,-0.38,0.68,102.77,15.01,-70.34,28.19,male1_walking1
255,4771120,-144.65,-1656.98,1233.28,-42.04,17.34,3.06,-233,-61,-715,0.48,-0.42,-0.37,0.68,101.32,12.21,-66.58,28.68,-576.42,-2000.00,250.12,32.97,101.81,-45.68,-233,-61,-715,0.49,-0.46,-0.36,0.65,95.77,13.28,-70.67,28.17,male1_walking1
256,4771177,256.47,-2000.00,306.03,-46.78,43.08,-6.55,-233,-61,-715,0.51,-0.46,-0.41,0.60,93.71,7.63,-75.43,28.68,891.66,-1857.18,845.64,48.29,18.32,-118.13,-224,-73,-764,0.58,-0.39,-0.44,0.57,92.55,-4.08,-71.93,28.19,male1_walking1
257,4771232,1210.21,-1479.13,1405.64,18.85,-82.98,-64.74,-224,-73,-764,0.62,-0.29,-0.46,0.56,94.00,-14.14,-65.92,28.67,40.22,-2000.00,1031.86,24.58,-75.58,-74.72,-224,-73,-764,0.62,-0.29,-0.46,0.57,94.74,-13.28,-64.61,28.20,male1_walking1
258,4771290,361.88,-1948.43,982.36,15.66,18.52,-84.87,-224,-73,-764,0.63,-0.29,-0.45,0.56,92.54,-14.11,-63.29,28.69,-105.90,-1862.06,838.99,16.12,30.32,-43.84,-451,322,-754,0.66,-0.33,-0.41,0.54,85.56,-10.81,-63.19,28.18,male1_walking1
259,4771346,501.65,-2000.00,1060.73,16.66,-11.71,-67.71,-451,322,-754,0.69,-0.32,-0.41,0.50,80.91,-13.52,-62.09,28.69,-105.77,-1977.48,935.55,15.05,-19.60,-39.67,-451,322,-754,0.69,-0.35,-0.39,0.50,78.35,-10.60,-62.37,28.20,male1_walking1
260,4771403,513.67,-1952.33,1025.82,16.57,-3.04,-70.99,-451,322,-754,0.71,-0.34,-0.39,0.47,75.25,-13.39,-61.57,28.69,-129.88,-1956.48,851.87,12.95,-31.56,-36.03,-461,333,-555,0.71,-0.37,-0.37,0.47,73.84,-10.47,-62.58,28.18,male1_walking1
261,4771459,417.36,-2000.00,980.16,27.05,-24.01,-71.31,-461,333,-555,0.73,-0.36,-0.38,0.45,71.74,-13.08,-61.91,28.68,-320.74,-1942.81,853.33,13.34,-26.20,-33.78,-461,333,-555,0.72,-0.38,-0.36,0.46,71.19,-8.96,-62.69,28.16,male1_walking1
262,4771516,377.26,-1942.44,1049.13,28.13,-19.91,-69.97,-461,333,-555,0.73,-0.37,-0.36,0.44,69.42,-11.58,-61.32,28.69,-59.33,-2000.00,855.22,10.84,-15.38,-47.09,-361,345,-556,0.73,-0.41,-0.34,0.43,66.65,-7.90,-63.46,28.17,male1_walking1
263,4771593,542.05,-2000.00,1020.14,3.79,-26.97,-62.28,-361,345,-556,0.74,-0.39,-0.35,0.41,65.66,-11.40,-63.14,28.68,-278.44,-2000.00,804.99,12.53,-44.76,-58.88,-361,345,-556,0.73,-0.41,-0.34,0.42,65.82,-8.50,-64.18,28.20,male1_walking1
264,4771663,157.47,-2000.00,923.52,11.65,-78.53,-62.69,-361,345,-556,0.73,-0.40,-0.36,0.42,66.85,-10.61,-64.35,28.66,-446.59,-2000.00,719.12,16.29,-44.14,-91.00,-334,317,-523,0.72,-0.42,-0.34,0.43,66.45,-7.50,-65.48,28.19,male1_walking1
265,4771720,266.17,-2000.00,1028.44,-13.63,-34.94,-38.51,-334,317,-523,0.73,-0.41,-0.35,0.42,66.09,-8.82,-65.10,28.70,-394.41,-2000.00,857.91,15.23,-20.42,-117.58,-334,317,-523,0.73,-0.43,-0.33,0.42,64.74,-6.89,-64.98,28.17,male1_walking1
266,4771775,-44.19,-2000.00,975.34,-20.30,-41.03,-3.97,-334,317,-523,0.72,-0.43,-0.32,0.43,65.47,-5.19,-65.39,28.68,-742.37,-2000.00,485.60,14.60,-7.78,-146.26,-463,345,-499,0.71,-0.46,-0.31,0.43,63.68,-2.45,-67.70,28.20,male1_walking1
267,4771832,381.35,-2000.00,35.46,-49.48,-26.15,53.31,-463,345,-499,0.68,-0.50,-0.35,0.41,65.04,-3.80,-74.76,28.68,325.44,-1946.66,597.11,77.17,-58.45,-136.80,-463,345,-499,0.71,-0.46,-0.37,0.39,64.70,-9.56,-72.09,28.16,male1_walking1
268,4771888,717.22,-2000.00,899.23,-42.84,-12.34,66.37,-463,345,-499,0.71,-0.45,-0.38,0.39,65.40,-10.32,-71.74,28.68,587.28,-1813.48,1018.98,45.29,68.75,-66.99,-463,345,-499,0.74,-0.42,-0.36,0.37,62.28,-12.94,-67.01,28.19,male1_walking1
269,4771945,1452.15,-1957.34,716.86,-39.01,-22.06,94.87,-177,319,-497,0.74,-0.42,-0.40,0.35,63.34,-17.01,-69.31,28.69,476.50,-1312.62,898.50,50.32,-74.62,30.78,-177,319,-497,0.75,-0.38,-0.39,0.37,63.63,-17.13,-64.85,28.18,male1_walking1
270,4772001,955.51,-1776.12,864.56,3.23,-82.51,105.18,-177,319,-497,0.74,-0.38,-0.40,0.38,65.82,-17.97,-65.57,28.70,298.89,-1365.54,957.46,2.46,-32.25,141.93,-177,319,-497,0.74,-0.39,-0.36,0.41,65.70,-12.95,-63.28,28.16,male1_walking1
271,4772058,883.18,-1659.00,878.42,26.73,-34.33,134.92,-224,381,-460,0.75,-0.38,-0.36,0.40,64.98,-13.82,-62.54,28.69,429.08,-1350.34,995.48,-39.57,-25.67,227.75,-224,381,-460,0.74,-0.40,-0.33,0.42,65.06,-9.38,-61.91,28.20,male1_walking1
272,4772114,872.01,-1569.70,1003.36,43.30,-37.43,118.74,-224,381,-460,0.76,-0.37,-0.34,0.41,64.13,-11.58,-59.72,28.66,288.64,-1489.56,900.76,-62.90,-68.79,249.99,-224,381,-460,0.73,-0.41,-0.32,0.44,66.14,-6.27,-62.02,28.18,male1_walking1
273,4772171,524.11,-1512.21,993.10,32.94,-18.17,76.94,-425,437,-550,0.75,-0.38,-0.32,0.44,65.29,-7.89,-59.36,28.67,246.28,-2000.00,882.57,-76.09,-90.33,249.99,-425,437,-550,0.71,-0.42,-0.32,0.47,68.92,-3.42,-63.45,28.19,male1_walking1
274,4772227,154.72,-2000.00,922.12,39.80,-26.51,85.14,-425,437,-550,0.72,-0.42,-0.30,0.47,67.71,-2.24,-62.65,28.69,-8.48,-1755.62,394.59,-78.45,-77.63,225.54,-425,437,-550,0.67,-0.47,-0.31,0.48,69.64,2.30,-68.43,28.16,male1_walking1
275,4772283,-1216.67,-2000.00,470.15,-4.14,-26.28,21.54,-425,437,-550,0.65,-0.52,-0.26,0.49,66.74,9.63,-70.48,28.69,-765.01,-1750.12,412.78,13.66,15.06,-17.88,-415,334,-509,0.65,-0.54,-0.23,0.48,63.95,12.63,-71.72,28.16,male1_walking1
276,4772340,-213.81,-1844.54,1102.97,-28.13,-16.11,-2.48,-415,334,-509,0.67,-0.52,-0.23,0.48,63.68,10.23,-68.66,28.69,-351.26,-2000.00,732.85,40.87,104.32,-83.18,-415,334,-509,0.70,-0.52,-0.22,0.44,59.05,8.79,-68.33,28.18,male1_walking1
277,4772396,152.47,-2000.00,30.64,-53.64,71.85,-28.18,-415,334,-509,0.68,-0.56,-0.26,0.40,56.54,5.02,-76.06,28.68,252.93,-2000.00,964.48,54.73,58.53,-114.27,-359,340,-470,0.73,-0.52,-0.27,0.36,54.06,-1.10,-71.18,28.20,male1_walking1
278,4772453,1213.62,-1656.74,995.36,1.85,26.44,-76.10,-359,340,-470,0.76,-0.47,-0.32,0.32,53.59,-10.90,-68.50,28.68,415.16,-1881.84,1042.54,47.29,-55.31,-77.68,-359,340,-470,0.77,-0.43,-0.34,0.34,55.96,-12.92,-65.73,28.18,male1_walking1
279,4772508,560.55,-2000.00,1005.92,17.24,-62.69,-75.84,-359,340,-470,0.77,-0.41,-0.36,0.34,58.42,-15.57,-65.04,28.68,-277.65,-1932.13,861.08,18.59,5.18,-58.50,-268,428,-467,0.77,-0.43,-0.32,0.35,56.26,-10.79,-64.45,28.19,male1_walking1
280,4772564,560.73,-1987.73,1029.85,16.41,-5.10,-65.20,-268,428,-467,0.78,-0.42,-0.33,0.33,54.45,-13.51,-63.22,28.68,18.19,-2000.00,938.29,20.26,-10.79,-46.17,-268,428,-467,0.78,-0.43,-0.31,0.34,53.83,-11.32,-63.02,28.18,male1_walking1
281,4772622,532.84,-1989.62,1076.48,12.50,-5.91,-76.06,-268,428,-467,0.79,-0.41,-0.32,0.32,52.44,-14.02,-61.99,28.69,-89.54,-1945.13,899.54,10.76,-24.93,-39.96,-268,428,-467,0.78,-0.43,-0.30,0.33,52.81,-10.92,-62.61,28.17,male1_walking1
282,4772678,490.97,-1998.05,979.49,18.28,-24.51,-72.55,-470,427,-475,0.78,-0.42,-0.32,0.33,54.35,-13.16,-62.77,28.67,-171.63,-1967.10,842.10,8.33,-33.71,-34.68,-470,427,-475,0.77,-0.43,-0.31,0.36,56.23,-9.41,-63.93,28.18,male1_walking1
283,4772735,337.46,-1956.85,995.85,22.98,-26.89,-72.94,-470,427,-475,0.77,-0.42,-0.32,0.36,56.62,-11.25,-63.11,28.67,-247.92,-1929.99,824.71,6.37,-4.69,-37.79,-470,427,-475,0.76,-0.44,-0.30,0.37,57.10,-7.21,-64.03,28.16,male1_walking1
284,4772791,432.01,-1958.01,987.30,13.88,4.65,-78.56,-422,430,-556,0.77,-0.42,-0.31,0.36,56.50,-10.36,-63.30,28.68,-89.90,-1986.57,813.05,6.57,3.94,-50.29,-422,430,-556,0.76,-0.44,-0.30,0.37,56.85,-8.03,-64.28,28.17,male1_walking1
285,4772848,583.07,-2000.00,1034.73,4.14,-18.24,-66.51,-422,430,-556,0.77,-0.42,-0.33,0.36,57.13,-11.75,-63.76,28.69,-325.74,-2000.00,797.42,6.11,-37.42,-64.58,-422,430,-556,0.75,-0.44,-0.31,0.37,58.26,-8.22,-64.92,28.17,male1_walking1
286,4772902,134.40,-2000.00,866.03,2.45,-56.40,-66.82,-439,440,-529,0.75,-0.44,-0.32,0.37,59.10,-9.34,-65.47,28.67,-440.61,-1996.22,648.44,8.80,-36.90,-91.46,-439,440,-529,0.74,-0.46,-0.31,0.38,59.14,-6.58,-66.88,28.18,male1_walking1
287,4772958,253.60,-2000.00,926.15,-20.30,-36.72,-42.97,-439,440,-529,0.74,-0.45,-0.32,0.38,59.26,-8.19,-66.98,28.66,-410.10,-2000.00,857.30,8.89,-21.61,-125.95,-439,440,-529,0.75,-0.46,-0.31,0.38,58.23,-6.54,-66.54,28.19,male1_walking1
288,4773015,-152.71,-2000.00,1037.35,-22.80,-28.38,-2.80,-439,440,-529,0.74,-0.46,-0.29,0.39,58.75,-4.01,-66.13,28.68,-780.46,-2000.00,449.89,10.53,16.56,-156.83,-293,444,-445,0.74,-0.50,-0.26,0.36,53.41,-0.95,-69.04,28.17,male1_walking1
289,4773077,190.43,-2000.00,563.66,-43.21,-9.42,32.83,-293,444,-445,0.73,-0.52,-0.27,0.35,53.09,-1.49,-71.40,28.68,214.23,-2000.00,942.99,62.85,-1.73,-131.34,-293,444,-445,0.76,-0.48,-0.28,0.33,50.74,-6.32,-67.49,28.17,male1_walking1
290,4773133,800.11,-2000.00,952.33,-53.41,49.84,72.87,-293,444,-445,0.76,-0.48,-0.29,0.31,50.14,-7.72,-68.18,28.68,909.42,-1675.11,1129.27,21.79,107.43,-66.46,-202,372,-428,0.80,-0.44,-0.29,0.28,46.46,-12.91,-63.73,28.18,male1_walking1
291,4773190,1411.07,-2000.00,785.10,-44.70,-7.50,98.25,-202,372,-428,0.78,-0.45,-0.33,0.28,49.86,-15.76,-66.57,28.67,355.83,-1426.51,1024.96,4.17,-33.03,64.27,-202,372,-428,0.79,-0.43,-0.32,0.31,51.62,-13.25,-63.50,28.17,male1_walking1
292,4773245,875.55,-1777.59,1005.98,-2.78,-30.65,118.95,-202,372,-428,0.78,-0.42,-0.32,0.33,54.09,-13.40,-63.33,28.68,276.00,-1413.64,1177.31,-45.63,15.37,151.78,-219,372,-394,0.78,-0.42,-0.29,0.36,54.25,-8.33,-61.25,28.17,male1_walking1
293,4773302,934.81,-1698.73,1009.28,26.52,21.55,144.92,-219,372,-394,0.79,-0.41,-0.29,0.36,54.73,-9.29,-60.10,28.68,500.61,-1386.23,1065.00,-84.30,-5.96,242.23,-219,372,-394,0.77,-0.43,-0.28,0.39,56.75,-5.63,-60.81,28.18,male1_walking1
294,4773358,837.95,-1549.74,1017.70,30.08,-1.48,109.25,-219,372,-394,0.78,-0.40,-0.29,0.38,56.45,-8.37,-58.90,28.68,248.84,-1554.44,999.39,-98.04,-40.98,249.99,-219,372,-394,0.76,-0.43,-0.27,0.41,59.00,-3.31,-61.44,28.18,male1_walking1
295,4773414,583.92,-1710.88,900.88,27.11,14.79,85.99,-466,440,-381,0.77,-0.42,-0.28,0.40,58.15,-5.36,-60.54,28.69,254.52,-2000.00,708.68,-83.18,-78.41,249.99,-466,440,-381,0.72,-0.46,-0.29,0.43,62.08,-1.28,-65.39,28.18,male1_walking1
296,4773470,170.04,-1878.72,375.61,31.01,-6.12,81.61,-466,440,-381,0.72,-0.48,-0.29,0.41,60.68,-1.23,-67.69,28.66,-549.99,-1896.48,703.25,-40.42,-97.64,191.77,-466,440,-381,0.69,-0.51,-0.25,0.45,62.72,6.32,-68.81,28.18,male1_walking1
297,4773526,-1266.72,-2000.00,511.54,21.58,-41.07,22.36,-415,324,-125,0.69,-0.52,-0.20,0.45,59.05,11.20,-67.53,28.68,-481.14,-1651.55,756.04,37.05,64.09,-55.63,-415,324,-125,0.74,-0.51,-0.17,0.41,52.78,9.75,-64.45,28.19,male1_walking1
298,4773583,378.30,-1734.25,1124.21,-14.98,10.45,-9.64,-415,324,-125,0.78,-0.47,-0.19,0.37,49.40,2.61,-61.37,28.67,-390.38,-2000.00,530.64,29.78,69.66,-40.46,-415,324,-125,0.78,-0.50,-0.18,0.35,45.68,4.10,-63.80,28.16,male1_walking1
299,4773640,-338.56,-2000.00,-432.68,-48.87,88.85,-26.95,-351,334,-111,0.74,-0.58,-0.18,0.29,40.10,4.81,-75.02,28.68,281.25,-2000.00,829.41,51.67,72.97,-124.50,-351,334,-111,0.78,-0.55,-0.19,0.24,35.24,-1.67,-70.50,28.16,male1_walking1
300,4773696,1424.13,-1550.84,1053.10,4.26,70.14,-72.17,-351,334,-111,0.82,-0.50,-0.24,0.17,31.65,-12.94,-66.44,28.67,455.02,-1896.36,1050.90,49.44,-81.86,-72.56,-351,334,-111,0.82,-0.48,-0.26,0.18,34.43,-14.48,-65.17,28.16,male1_walking1
301,4773752,329.22,-2000.00,992.80,14.28,-74.14,-75.70,-351,334,-111,0.81,-0.48,-0.27,0.20,37.16,-14.69,-65.72,28.68,-273.93,-1837.89,875.49,15.75,21.03,-59.84,-304,444,-125,0.82,-0.48,-0.23,0.21,34.96,-10.05,-64.18,28.18,male1_walking1
302,4773809,634.09,-2000.00,995.24,16.59,7.07,-65.35,-304,444,-125,0.83,-0.47,-0.24,0.18,33.16,-13.45,-62.96,28.68,50.54,-2000.00,876.40,17.06,-7.26,-43.01,-304,444,-125,0.83,-0.48,-0.23,0.19,33.04,-11.32,-63.37,28.17,male1_walking1
303,4773865,544.74,-1962.52,1025.57,17.83,-17.94,-81.47,-304,444,-125,0.83,-0.46,-0.25,0.17,32.18,-14.49,-62.35,28.69,-123.35,-1918.64,886.60,10.00,-29.98,-39.05,-470,434,-125,0.82,-0.48,-0.23,0.21,34.68,-9.77,-64.29,28.17,male1_walking1
304,4773922,449.28,-1996.15,951.48,20.64,-18.81,-75.59,-470,434,-125,0.82,-0.48,-0.24,0.20,35.36,-11.84,-64.43,28.66,-229.37,-1983.70,779.66,10.30,-29.89,-36.66,-470,434,-125,0.81,-0.50,-0.22,0.23,36.93,-7.70,-66.03,28.20,male1_walking1
305,4773978,262.27,-1937.68,970.76,25.89,-31.62,-75.39,-470,434,-125,0.81,-0.48,-0.24,0.22,37.12,-9.70,-64.72,28.65,-286.13,-1913.82,807.98,9.83,-2.01,-46.10,-441,428,-119,0.81,-0.50,-0.21,0.24,37.10,-6.02,-65.27,28.21,male1_walking1
306,4774034,543.82,-1970.76,1000.49,12.25,6.98,-71.48,-441,428,-119,0.82,-0.48,-0.23,0.22,35.95,-9.97,-64.18,28.68,-62.38,-2000.00,859.44,6.33,4.88,-53.92,-441,428,-119,0.81,-0.49,-0.22,0.22,35.94,-7.74,-65.02,28.18,male1_walking1
307,4774090,436.77,-2000.00,976.81,-1.81,-10.86,-69.43,-441,428,-119,0.82,-0.49,-0.24,0.21,35.74,-10.48,-64.95,28.66,-391.48,-1970.83,667.79,7.83,-28.67,-72.01,-441,428,-119,0.80,-0.51,-0.22,0.23,36.50,-6.69,-66.81,28.18,male1_walking1
308,4774147,195.80,-2000.00,800.05,-2.04,-49.74,-69.67,-459,427,-111,0.80,-0.50,-0.24,0.22,37.21,-8.76,-67.43,28.67,-329.90,-2000.00,713.38,9.61,-23.88,-100.04,-459,427,-111,0.80,-0.51,-0.22,0.23,36.96,-6.93,-67.92,28.18,male1_walking1
309,4774202,269.23,-2000.00,1085.88,-21.06,-30.64,-38.97,-459,427,-111,0.80,-0.50,-0.23,0.23,37.02,-8.31,-66.66,28.65,-481.08,-2000.00,868.41,4.62,-16.66,-128.91,-459,427,-111,0.80,-0.51,-0.21,0.23,36.17,-6.08,-66.47,28.17,male1_walking1
310,4774259,-363.83,-2000.00,986.57,-29.00,-22.08,6.52,-307,427,-94,0.80,-0.51,-0.18,0.24,34.93,-2.14,-65.67,28.69,-642.33,-2000.00,25.27,9.51,32.94,-158.44,-307,427,-94,0.79,-0.56,-0.16,0.21,30.82,-1.09,-70.62,28.18,male1_walking1
311,4774318,421.26,-2000.00,667.18,-30.77,8.95,41.08,-307,427,-94,0.79,-0.56,-0.17,0.19,29.57,-3.26,-71.08,28.66,193.36,-2000.00,965.64,54.20,15.42,-115.65,-307,427,-94,0.82,-0.52,-0.18,0.16,26.89,-6.78,-67.01,28.15,male1_walking1
312,4774374,800.84,-2000.00,942.99,-50.42,57.98,77.00,-199,379,-125,0.81,-0.53,-0.18,0.15,26.49,-7.85,-67.97,28.68,909.00,-1482.36,1014.71,18.42,81.16,-61.16,-199,379,-125,0.84,-0.50,-0.20,0.11,23.73,-13.13,-64.36,28.19,male1_walking1
313,4774430,1323.18,-2000.00,821.96,-41.89,-4.15,105.39,-199,379,-125,0.82,-0.51,-0.23,0.12,27.09,-15.14,-67.48,28.64,332.03,-1404.85,1033.69,-9.72,-10.83,73.88,-199,379,-125,0.83,-0.49,-0.21,0.15,28.01,-12.18,-64.58,28.16,male1_walking1
314,4774486,903.38,-1790.41,982.18,5.68,-14.57,130.81,-199,379,-125,0.83,-0.49,-0.22,0.17,30.52,-12.19,-64.15,28.67,374.08,-1370.36,1128.42,-55.85,13.99,159.30,-249,427,-354,0.82,-0.48,-0.21,0.23,35.84,-7.25,-62.97,28.16,male1_walking1
315,4774544,1008.12,-1670.41,985.96,27.26,12.89,143.95,-249,427,-354,0.82,-0.46,-0.24,0.25,39.86,-8.65,-62.01,28.66,502.20,-1413.45,1084.47,-79.03,-33.21,249.99,-249,427,-354,0.80,-0.46,-0.23,0.31,45.24,-4.68,-62.33,28.16,male1_walking1
316,4774600,810.00,-1525.57,971.07,28.06,-2.18,111.37,-249,427,-354,0.80,-0.44,-0.25,0.31,46.83,-7.46,-60.40,28.67,242.80,-1577.64,932.86,-92.00,-46.06,249.99,-415,427,-442,0.76,-0.46,-0.24,0.37,53.34,-1.41,-63.30,28.17,male1_walking1
317,4774656,620.42,-1687.01,955.26,32.54,29.79,77.03,-415,427,-442,0.77,-0.45,-0.25,0.37,53.74,-3.60,-61.68,28.68,122.01,-2000.00,728.21,-91.14,-44.93,249.99,-415,427,-442,0.73,-0.49,-0.25,0.41,58.05,2.01,-66.45,28.19,male1_walking1
318,4774713,-87.04,-2000.00,485.53,33.99,26.91,68.60,-415,427,-442,0.72,-0.51,-0.24,0.41,56.70,3.85,-68.06,28.67,-630.37,-1588.01,521.24,-31.78,-56.48,166.76,-464,326,-440,0.68,-0.54,-0.21,0.46,60.26,12.47,-69.69,28.16,male1_walking1
319,4774768,-892.15,-2000.00,276.55,11.77,-35.10,45.15,-464,326,-440,0.65,-0.56,-0.19,0.47,59.96,16.31,-72.23,28.69,-245.06,-1630.43,917.66,50.61,42.18,-85.22,-464,326,-440,0.70,-0.53,-0.19,0.45,57.62,11.97,-67.99,28.19,male1_walking1
320,4774825,273.38,-1797.67,1254.39,2.72,-13.82,4.04,-464,326,-440,0.72,-0.49,-0.22,0.44,58.57,6.30,-64.09,28.64,-258.24,-2000.00,289.73,41.01,67.37,-67.09,-464,326,-440,0.72,-0.51,-0.22,0.41,55.95,5.78,-68.03,28.19,male1_walking1
321,4774881,332.95,-2000.00,159.12,-23.41,45.62,-18.50,-358,345,-448,0.71,-0.54,-0.27,0.37,54.53,1.29,-73.93,28.66,363.22,-1848.75,821.17,45.71,14.78,-120.49,-358,345,-448,0.74,-0.50,-0.29,0.35,53.62,-4.54,-70.82,28.17,male1_walking1
322,4774937,1200.01,-2000.00,1128.42,10.77,39.08,-66.29,-358,345,-448,0.77,-0.46,-0.33,0.31,52.79,-12.34,-67.92,28.66,277.28,-1876.71,1142.33,44.17,-45.71,-71.27,-358,345,-448,0.77,-0.43,-0.33,0.33,54.84,-12.69,-64.68,28.18,male1_walking1
323,4774994,285.58,-2000.00,1070.19,16.94,-40.76,-72.56,-307,317,-485,0.77,-0.41,-0.34,0.35,57.27,-13.14,-63.58,28.68,-65.06,-1922.61,821.72,16.69,7.51,-62.57,-307,317,-485,0.76,-0.42,-0.32,0.37,57.94,-10.47,-63.94,28.16,male1_walking1
324,4775049,710.75,-1995.42,1001.53,16.96,-30.23,-69.63,-307,317,-485,0.77,-0.40,-0.35,0.36,59.03,-14.43,-63.44,28.66,36.93,-2000.00,884.95,18.74,-13.57,-42.27,-307,317,-485,0.76,-0.41,-0.34,0.38,60.12,-11.69,-63.74,28.19,male1_walking1
325,4775107,491.94,-2000.00,995.91,10.08,-17.04,-73.20,-463,317,-485,0.76,-0.40,-0.35,0.38,61.53,-13.46,-63.61,28.67,-46.63,-1928.53,852.97,8.81,-24.82,-34.43,-463,317,-485,0.74,-0.41,-0.34,0.40,63.31,-10.27,-64.30,28.16,male1_walking1
326,4775163,466.74,-1984.07,956.42,13.98,-39.58,-71.21,-463,317,-485,0.75,-0.40,-0.36,0.40,64.38,-12.85,-64.08,28.66,-233.52,-1956.97,852.54,5.42,-41.20,-32.44,-463,317,-485,0.73,-0.41,-0.34,0.42,65.85,-8.94,-64.79,28.19,male1_walking1
327,4775218,366.33,-1939.58,1034.97,19.14,-8.07,-71.79,-463,317,-485,0.74,-0.40,-0.35,0.41,65.09,-11.18,-63.20,28.66,-185.67,-1941.35,853.58,3.74,-4.00,-30.94,-453,375,-475,0.74,-0.42,-0.33,0.42,64.30,-7.97,-63.79,28.16,male1_walking1
328,4775275,335.08,-1970.03,995.79,14.77,14.97,-80.13,-453,375,-475,0.75,-0.41,-0.33,0.40,62.06,-10.24,-62.83,28.67,-268.98,-1944.58,849.67,2.33,12.35,-41.94,-453,375,-475,0.74,-0.43,-0.31,0.41,61.27,-5.94,-63.74,28.17,male1_walking1
329,4775333,491.21,-2000.00,966.31,9.59,6.12,-74.34,-453,375,-475,0.76,-0.42,-0.32,0.38,60.03,-9.62,-63.44,28.66,-261.96,-2000.00,736.08,4.23,-18.97,-61.77,-436,386,-475,0.75,-0.44,-0.31,0.39,60.15,-6.85,-65.05,28.19,male1_walking1
330,4775391,129.21,-1994.02,829.10,-3.93,-31.91,-66.51,-436,386,-475,0.74,-0.44,-0.32,0.39,60.19,-7.99,-65.83,28.66,-436.04,-1935.55,607.30,8.35,-18.17,-85.98,-436,386,-475,0.73,-0.46,-0.31,0.39,59.88,-5.07,-67.32,28.19,male1_walking1
331,4775446,306.52,-2000.00,971.62,-19.13,-39.36,-41.82,-436,386,-475,0.74,-0.45,-0.32,0.38,60.19,-7.53,-66.97,28.66,-509.03,-2000.00,769.17,1.91,-2.17,-128.90,-307,348,-475,0.74,-0.47,-0.29,0.38,57.64,-3.63,-67.55,28.17,male1_walking1
332,4775522,-168.46,-2000.00,780.15,-44.24,-17.43,27.02,-307,348,-475,0.72,-0.49,-0.28,0.40,58.63,-0.78,-69.17,28.69,-212.89,-2000.00,9.70,6.61,32.57,-151.24,-307,348,-475,0.71,-0.52,-0.30,0.36,56.35,-2.66,-74.46,28.16,male1_walking1
333,4775577,445.37,-1928.04,786.87,-39.02,-22.91,35.27,-307,348,-475,0.71,-0.51,-0.32,0.36,57.59,-4.44,-73.85,28.65,95.58,-2000.00,1097.29,46.52,25.73,-113.53,-468,346,-501,0.74,-0.48,-0.31,0.36,56.75,-6.38,-68.99,28.19,male1_walking1
334,4775635,798.71,-2000.00,908.51,-43.08,67.26,61.91,-468,346,-501,0.74,-0.48,-0.32,0.36,57.23,-7.26,-69.52,28.66,565.80,-1578.74,982.12,13.36,36.83,-57.47,-468,346,-501,0.76,-0.44,-0.33,0.35,56.85,-10.48,-66.31,28.19,male1_walking1
335,4775691,1064.51,-1957.52,968.38,-43.37,-20.34,99.14,-468,346,-501,0.74,-0.44,-0.35,0.37,60.70,-11.73,-67.64,28.68,280.27,-1404.60,1137.33,-32.81,7.93,76.48,-468,346,-501,0.75,-0.42,-0.33,0.40,61.70,-8.67,-64.41,28.17,male1_walking1
336,4775747,828.25,-1842.41,1081.30,0.95,5.89,116.43,-145,324,-550,0.75,-0.41,-0.33,0.40,62.09,-9.13,-63.25,28.66,275.09,-1537.66,1130.68,-69.79,23.35,149.23,-145,324,-550,0.74,-0.43,-0.30,0.42,62.09,-5.14,-62.83,28.18,male1_walking1
337,4775803,832.82,-1753.17,1029.85,12.53,42.69,132.69,-145,324,-550,0.75,-0.42,-0.30,0.42,61.83,-5.96,-61.69,28.66,384.89,-1553.10,1086.18,-104.95,5.20,230.56,-145,324,-550,0.73,-0.44,-0.29,0.44,63.60,-1.84,-63.05,28.17,male1_walking1
338,4775860,763.37,-1608.46,919.25,12.12,37.38,100.31,-425,321,-556,0.74,-0.42,-0.30,0.44,64.48,-4.65,-61.98,28.68,351.14,-1690.49,1025.21,-115.43,4.76,249.99,-425,321,-556,0.71,-0.44,-0.30,0.47,67.53,-0.24,-64.28,28.17,male1_walking1
339,4775916,665.47,-1734.80,864.44,26.36,41.61,70.37,-425,321,-556,0.72,-0.42,-0.31,0.45,66.60,-3.41,-63.21,28.67,181.82,-1994.87,722.35,-85.10,-55.74,249.99,-425,321,-556,0.68,-0.46,-0.31,0.48,70.47,1.41,-67.29,28.17,male1_walking1
340,4775972,-83.92,-1970.09,395.81,36.69,25.34,74.09,-409,372,-816,0.66,-0.49,-0.30,0.48,69.71,4.01,-69.62,28.66,-555.30,-1871.64,663.76,-10.32,-38.38,177.72,-409,372,-816,0.63,-0.51,-0.27,0.52,71.53,10.80,-69.87,28.19,male1_walking1
341,4776029,-772.28,-2000.00,691.35,37.36,-21.71,29.92,-409,372,-816,0.63,-0.52,-0.24,0.53,71.15,14.02,-68.92,28.68,-461.85,-1766.85,746.83,34.07,58.10,-31.75,-409,372,-816,0.64,-0.51,-0.23,0.52,68.48,13.70,-67.94,28.16,male1_walking1
342,4776085,-179.44,-1935.55,1336.36,2.96,42.68,2.46,-409,372,-816,0.67,-0.49,-0.22,0.51,67.86,11.50,-64.24,28.66,-190.92,-2000.00,168.46,28.88,119.58,-44.52,-436,317,-880,0.66,-0.52,-0.24,0.48,64.40,10.07,-70.00,28.16,male1_walking1
343,4776140,-28.75,-2000.00,-397.83,-36.16,110.73,-16.04,-436,317,-880,0.63,-0.58,-0.28,0.44,62.17,8.38,-79.41,28.65,337.95,-2000.00,625.73,45.36,52.53,-101.58,-436,317,-880,0.67,-0.54,-0.31,0.41,62.18,1.33,-76.82,28.16,male1_walking1
344,4776197,1310.36,-1619.38,1206.36,-5.78,95.85,-53.76,-436,317,-880,0.72,-0.47,-0.35,0.37,61.20,-8.58,-71.75,28.65,260.80,-1974.00,846.80,38.38,-59.57,-63.86,-468,333,-973,0.71,-0.44,-0.37,0.40,65.72,-9.92,-69.62,28.18,male1_walking1
345,4776253,200.13,-2000.00,956.97,15.60,-65.67,-65.11,-468,333,-973,0.71,-0.42,-0.38,0.42,68.85,-10.68,-68.04,28.65,-414.18,-1884.09,878.54,19.74,23.91,-53.31,-468,333,-973,0.70,-0.43,-0.34,0.45,68.96,-5.84,-66.55,28.16,male1_walking1
346,4776310,454.53,-2000.00,1080.20,12.06,39.28,-53.20,-468,333,-973,0.72,-0.41,-0.35,0.44,68.35,-8.37,-64.60,28.64,73.06,-2000.00,888.67,17.26,22.61,-43.92,-359,350,-986,0.72,-0.41,-0.34,0.44,68.08,-7.43,-64.35,28.16,male1_walking1
347,4776367,712.95,-2000.00,971.80,13.49,13.44,-69.92,-359,350,-986,0.73,-0.39,-0.37,0.42,67.69,-11.94,-63.74,28.67,98.39,-1974.24,824.10,7.45,-22.18,-35.04,-359,350,-986,0.72,-0.39,-0.36,0.43,68.85,-10.59,-64.53,28.18,male1_walking1
348,4776422,580.99,-1981.45,894.65,12.59,-21.21,-74.51,-359,350,-986,0.73,-0.38,-0.39,0.42,69.16,-14.11,-64.44,28.65,-177.98,-1958.19,738.95,-0.39,-34.50,-24.72,-359,350,-986,0.71,-0.40,-0.37,0.44,70.47,-10.09,-65.91,28.16,male1_walking1
349,4776479,239.07,-1945.19,883.36,19.96,-24.00,-67.75,-251,319,-986,0.72,-0.39,-0.38,0.44,70.49,-11.17,-65.16,28.65,-358.40,-1912.90,708.07,-0.19,8.35,-29.09,-251,319,-986,0.70,-0.42,-0.35,0.45,70.25,-6.40,-66.28,28.17,male1_walking1
350,4776535,220.28,-1987.12,947.39,6.81,46.16,-72.75,-251,319,-986,0.72,-0.41,-0.35,0.44,68.49,-7.63,-65.29,28.66,-206.30,-1985.90,777.16,-1.63,48.86,-42.27,-251,319,-986,0.71,-0.43,-0.33,0.45,67.66,-4.70,-66.01,28.16,male1_walking1
351,4776591,531.86,-2000.00,929.08,-7.18,39.18,-68.17,-199,379,-954,0.73,-0.42,-0.35,0.42,65.67,-8.76,-65.75,28.65,-257.39,-2000.00,638.73,-2.56,8.55,-59.59,-199,379,-954,0.72,-0.44,-0.34,0.42,65.39,-6.09,-67.39,28.18,male1_walking1
352,4776648,208.68,-2000.00,803.22,-16.50,-7.29,-60.20,-199,379,-954,0.72,-0.44,-0.35,0.42,65.59,-7.69,-68.00,28.66,-340.64,-1960.94,551.51,2.78,3.18,-80.51,-199,379,-954,0.71,-0.46,-0.34,0.42,65.42,-5.20,-69.47,28.18,male1_walking1
353,4776703,305.30,-2000.00,814.15,-27.90,-12.95,-31.68,-456,317,-954,0.70,-0.45,-0.36,0.43,67.94,-6.80,-69.95,28.66,-211.43,-2000.00,804.69,5.64,2.27,-110.50,-456,317,-954,0.70,-0.45,-0.35,0.44,68.44,-6.08,-69.24,28.18,male1_walking1
354,4776760,109.31,-2000.00,1149.35,-39.54,-34.09,-4.04,-456,317,-954,0.69,-0.43,-0.35,0.46,70.54,-5.46,-67.94,28.66,-561.83,-2000.00,640.14,-13.39,7.80,-144.97,-456,317,-954,0.68,-0.45,-0.35,0.45,69.82,-3.52,-69.34,28.18,male1_walking1
355,4776816,70.13,-2000.00,581.91,-62.27,2.25,14.08,-456,317,-954,0.66,-0.47,-0.36,0.46,71.10,-2.52,-72.50,28.66,-371.28,-1984.68,800.23,-15.35,18.13,-121.93,-392,324,-961,0.67,-0.47,-0.35,0.46,70.11,-2.15,-71.68,28.16,male1_walking1
356,4776872,302.43,-2000.00,1239.38,-70.02,106.70,42.47,-392,324,-961,0.68,-0.47,-0.33,0.45,68.23,-1.43,-69.77,28.67,368.41,-2000.00,1428.28,-37.87,192.92,-90.13,-392,324,-961,0.72,-0.45,-0.31,0.42,63.43,-3.69,-66.42,28.18,male1_walking1
357,4776928,1029.60,-2000.00,1133.67,-63.18,143.36,82.05,-392,324,-961,0.73,-0.45,-0.32,0.41,63.16,-5.70,-66.48,28.64,676.70,-1536.01,1256.96,-57.95,109.05,-50.09,-436,-10,-759,0.73,-0.40,-0.34,0.43,66.99,-8.84,-63.82,28.18,male1_walking1
358,4776986,920.72,-2000.00,1220.40,-50.80,72.67,87.76,-436,-10,-759,0.71,-0.39,-0.36,0.47,72.51,-8.78,-63.81,28.66,192.08,-1511.11,1391.42,-97.93,73.09,37.60,-436,-10,-759,0.69,-0.38,-0.35,0.50,75.50,-5.90,-61.83,28.17,male1_walking1
359,4777042,862.06,-1877.50,1226.01,-19.55,107.84,114.78,-436,-10,-759,0.68,-0.37,-0.35,0.52,78.53,-5.72,-60.95,28.67,301.45,-1536.32,1413.39,-128.06,72.59,125.26,-436,-10,-759,0.66,-0.37,-0.34,0.55,81.38,-2.48,-60.74,28.13,male1_walking1
360,4777098,802.67,-1811.04,1133.67,1.50,100.86,122.36,-297,167,-826,0.67,-0.37,-0.34,0.54,79.73,-3.03,-59.86,28.65,342.71,-1596.01,1250.55,-133.56,34.46,195.66,-297,167,-826,0.65,-0.39,-0.33,0.56,81.08,0.15,-61.39,28.16,male1_walking1
361,4777163,700.26,-1781.31,906.07,-0.12,103.00,99.62,-297,167,-826,0.67,-0.39,-0.34,0.54,78.76,-1.83,-61.98,28.67,374.51,-1767.33,1044.13,-134.86,74.87,244.88,-297,167,-826,0.64,-0.42,-0.33,0.55,79.97,2.55,-64.93,28.15,male1_walking1
362,4777220,741.58,-1718.57,661.93,18.07,129.69,76.06,-463,-113,-978,0.64,-0.41,-0.36,0.55,82.14,-0.75,-65.66,28.65,290.53,-1831.97,823.24,-99.04,61.98,249.99,-463,-113,-978,0.59,-0.43,-0.36,0.58,86.99,4.28,-68.23,28.17,male1_walking1
363,4777275,346.98,-1980.35,506.16,43.82,126.44,54.12,-463,-113,-978,0.59,-0.43,-0.37,0.58,86.59,3.35,-69.23,28.67,-147.95,-1907.84,731.38,-39.17,-9.15,182.55,-463,-113,-978,0.54,-0.44,-0.37,0.61,90.95,8.36,-69.97,28.18,male1_walking1
364,4777332,-382.81,-2000.00,817.81,44.57,-38.64,19.51,-436,-120,-975,0.53,-0.43,-0.36,0.63,93.80,9.10,-67.79,28.63,-339.17,-1851.44,764.28,29.39,7.42,1.14,-436,-120,-975,0.53,-0.42,-0.36,0.64,94.36,9.42,-66.83,28.17,male1_walking1
365,4777392,-5.37,-1954.90,1028.50,15.40,-48.03,3.52,-436,-120,-975,0.54,-0.39,-0.37,0.65,96.43,6.28,-64.92,28.68,-203.74,-2000.00,180.73,32.75,45.01,-58.04,-436,-120,-975,0.54,-0.42,-0.39,0.62,94.20,5.27,-69.44,28.18,male1_walking1
366,4777448,20.45,-2000.00,-58.47,-30.08,50.28,-27.65,-249,-20,-934,0.54,-0.45,-0.43,0.57,91.38,3.24,-76.96,28.66,86.30,-2000.00,682.19,44.88,60.26,-92.72,-249,-20,-934,0.57,-0.43,-0.42,0.56,89.32,-0.13,-74.42,28.16,male1_walking1
367,4777504,982.12,-1807.13,1193.66,-2.59,65.21,-70.96,-249,-20,-934,0.62,-0.37,-0.44,0.53,87.03,-8.75,-69.72,28.66,171.81,-1904.48,938.66,34.11,-18.32,-50.96,-249,-20,-934,0.63,-0.35,-0.43,0.54,87.73,-9.23,-67.17,28.16,male1_walking1
368,4777560,368.23,-2000.00,713.99,14.34,-49.70,-61.54,-249,-20,-934,0.63,-0.34,-0.45,0.54,89.24,-11.72,-67.81,28.65,-453.00,-1935.79,828.19,22.40,30.94,-49.39,-358,-24,-961,0.61,-0.38,-0.40,0.57,88.00,-3.19,-66.18,28.18,male1_walking1
369,4777659,536.80,-2000.00,926.27,7.38,87.86,-47.38,-358,-24,-961,0.66,-0.35,-0.41,0.53,83.94,-9.73,-64.71,28.67,36.50,-2000.00,856.51,16.61,-5.94,-46.59,-353,-114,-970,0.64,-0.34,-0.41,0.55,86.81,-8.87,-64.74,28.18,male1_walking1
370,4777716,524.78,-1981.75,974.12,7.11,4.25,-63.71,-353,-114,-970,0.64,-0.32,-0.43,0.55,88.34,-11.98,-64.21,28.65,-11.72,-1975.16,784.48,3.62,-3.59,-33.23,-353,-114,-970,0.63,-0.33,-0.43,0.56,90.02,-9.81,-65.14,28.17,male1_walking1
371,4777771,529.42,-1985.35,837.89,6.76,5.09,-67.05,-353,-114,-970,0.63,-0.31,-0.45,0.55,90.78,-12.86,-65.38,28.66,-126.10,-1900.39,670.78,-0.83,-5.95,-31.14,-353,-114,-970,0.61,-0.33,-0.44,0.57,92.04,-9.49,-66.76,28.19,male1_walking1
372,4777828,418.88,-1936.22,874.15,6.37,18.88,-58.76,-387,-118,-986,0.62,-0.32,-0.45,0.56,91.98,-11.51,-66.04,28.65,-122.56,-1918.09,777.53,-3.49,33.96,-28.79,-387,-118,-986,0.61,-0.34,-0.43,0.57,91.95,-8.00,-66.44,28.17,male1_walking1
373,4777883,530.03,-1970.40,996.34,4.71,65.89,-73.55,-387,-118,-986,0.63,-0.32,-0.43,0.56,90.36,-10.84,-64.99,28.64,-39.25,-1993.90,758.06,-7.00,29.79,-34.71,-387,-118,-986,0.62,-0.34,-0.43,0.57,90.83,-8.43,-66.06,28.16,male1_walking1
374,4777940,395.51,-2000.00,854.37,-6.92,17.18,-66.41,-415,-113,-958,0.62,-0.33,-0.44,0.56,91.22,-10.76,-66.35,28.64,-358.22,-2000.00,619.20,-7.80,-8.74,-56.42,-415,-113,-958,0.60,-0.35,-0.44,0.57,92.35,-7.09,-68.12,28.16,male1_walking1
375,4777997,215.21,-2000.00,694.27,-16.56,-16.14,-59.97,-415,-113,-958,0.59,-0.35,-0.45,0.57,93.47,-8.50,-69.39,28.66,-350.04,-2000.00,593.32,-3.88,-0.42,-82.24,-415,-113,-958,0.58,-0.36,-0.45,0.57,93.70,-5.78,-70.49,28.15,male1_walking1
376,4778054,215.76,-2000.00,1065.31,-20.23,-30.41,-27.28,-402,-113,-927,0.58,-0.35,-0.45,0.58,94.98,-6.73,-68.63,28.65,-451.11,-2000.00,720.89,-12.76,4.75,-110.60,-402,-113,-927,0.58,-0.36,-0.44,0.59,94.31,-4.58,-69.24,28.16,male1_walking1
377,4778109,-26.55,-2000.00,838.32,-64.42,-5.21,24.02,-402,-113,-927,0.56,-0.38,-0.44,0.59,95.38,-2.33,-70.61,28.65,-566.10,-2000.00,643.80,-25.75,37.78,-131.81,-402,-113,-927,0.56,-0.40,-0.43,0.59,93.61,-0.72,-71.64,28.15,male1_walking1
378,4778167,166.63,-1768.43,1025.33,-32.98,23.77,17.61,-402,-113,-927,0.57,-0.38,-0.42,0.60,93.95,-1.10,-69.24,28.66,-95.09,-2000.00,1030.88,-10.04,150.37,-106.59,-463,-92,-924,0.60,-0.39,-0.40,0.58,89.04,-1.29,-67.43,28.16,male1_walking1
379,4778223,804.81,-2000.00,1035.34,-47.52,134.90,46.91,-463,-92,-924,0.61,-0.38,-0.40,0.56,87.76,-3.60,-67.41,28.64,646.36,-1623.05,1110.78,-11.38,149.09,-85.16,-463,-92,-924,0.65,-0.35,-0.40,0.54,84.94,-7.87,-64.38,28.16,male1_walking1
380,4778279,1065.80,-2000.00,1060.30,-55.88,85.27,74.71,-463,-92,-924,0.64,-0.34,-0.42,0.54,86.65,-9.85,-65.26,28.64,302.61,-1596.92,1223.57,-49.78,66.80,-10.82,-361,-92,-961,0.65,-0.33,-0.41,0.55,86.42,-9.26,-62.87,28.18,male1_walking1
381,4778337,762.15,-1880.92,1243.35,-23.91,79.17,105.50,-361,-92,-961,0.64,-0.33,-0.40,0.56,87.70,-8.52,-61.71,28.62,299.50,-1556.70,1440.19,-99.63,100.71,95.76,-361,-92,-961,0.64,-0.34,-0.37,0.58,87.69,-4.96,-60.29,28.19,male1_walking1
382,4778393,859.74,-1928.34,1111.82,2.59,101.52,121.19,-361,-92,-961,0.64,-0.33,-0.38,0.59,88.81,-5.39,-60.09,28.62,364.69,-1637.94,1239.44,-105.43,42.07,162.86,-463,-229,-927,0.60,-0.34,-0.38,0.62,93.46,-2.44,-61.06,28.13,male1_walking1
383,4778449,626.53,-1829.28,989.44,10.42,87.91,112.80,-463,-229,-927,0.59,-0.33,-0.39,0.63,95.39,-2.57,-60.90,28.63,293.82,-1715.52,1068.66,-118.94,66.96,214.25,-463,-229,-927,0.55,-0.35,-0.39,0.65,98.41,1.78,-63.38,28.17,male1_walking1
384,4778506,786.13,-1769.35,771.36,7.04,102.13,100.08,-463,-229,-927,0.56,-0.34,-0.41,0.64,98.28,-1.01,-64.05,28.63,475.77,-1696.41,956.42,-110.12,38.67,248.44,-463,-229,-927,0.52,-0.36,-0.41,0.65,101.36,2.10,-66.07,28.14,male1_walking1
385,4778562,823.49,-1782.90,674.87,28.76,81.64,59.97,-226,-448,-755,0.52,-0.31,-0.45,0.65,105.35,-3.14,-66.49,28.65,298.28,-1931.09,759.64,-70.47,-27.16,249.99,-226,-448,-755,0.46,-0.32,-0.46,0.68,111.72,0.71,-68.81,28.15,male1_walking1
386,4778618,82.46,-1957.46,550.05,50.38,36.67,47.72,-226,-448,-755,0.45,-0.32,-0.47,0.69,113.58,1.38,-68.99,28.65,-471.19,-1898.07,657.71,-19.90,-51.84,153.00,-226,-448,-755,0.39,-0.34,-0.46,0.72,117.99,7.98,-69.90,28.18,male1_walking1
387,4778675,-587.04,-2000.00,698.97,30.67,-57.16,21.96,-361,-475,-742,0.37,-0.35,-0.45,0.74,120.31,10.41,-68.86,28.64,-448.43,-1826.78,757.32,44.00,39.51,-51.30,-361,-475,-742,0.38,-0.35,-0.44,0.74,118.67,10.13,-67.67,28.18,male1_walking1
388,4778733,268.98,-1780.09,1242.92,4.69,25.55,-13.42,-361,-475,-742,0.41,-0.30,-0.44,0.74,118.49,5.02,-64.05,28.67,-140.20,-2000.00,-222.23,10.08,94.28,-41.22,-361,-475,-742,0.41,-0.34,-0.48,0.69,115.41,4.84,-72.32,28.15,male1_walking1
389,4778788,-6.16,-1886.72,711.91,-2.91,46.86,-32.58,-359,-474,-683,0.42,-0.33,-0.48,0.69,115.58,3.19,-71.48,28.65,236.21,-1800.05,1026.49,39.26,64.89,-114.35,-359,-474,-683,0.46,-0.29,-0.47,0.69,114.58,-1.49,-67.60,28.18,male1_walking1
390,4778844,1094.48,-1643.80,940.55,12.52,174.45,-42.20,-359,-474,-683,0.51,-0.25,-0.48,0.67,111.33,-8.41,-65.18,28.62,-103.33,-2000.00,704.16,31.68,-91.58,-75.07,-359,-474,-683,0.47,-0.23,-0.50,0.69,117.08,-8.27,-66.21,28.18,male1_walking1
391,4778909,165.34,-1849.85,1061.65,21.82,-110.15,-64.96,-359,-474,-683,0.46,-0.20,-0.50,0.71,120.48,-10.29,-64.11,28.64,-72.39,-1924.13,961.43,27.24,59.85,-52.61,-436,-499,-550,0.46,-0.21,-0.48,0.72,120.17,-7.30,-62.69,28.17,male1_walking1
392,4778966,689.70,-2000.00,950.13,14.34,35.70,-63.12,-436,-499,-550,0.47,-0.19,-0.49,0.71,120.36,-11.16,-62.54,28.63,153.75,-1970.34,894.71,13.79,-5.26,-46.88,-436,-499,-550,0.46,-0.19,-0.49,0.72,121.83,-10.38,-62.86,28.17,male1_walking1
393,4779022,651.79,-1945.92,985.78,11.76,14.47,-80.20,-436,-499,-550,0.47,-0.16,-0.50,0.71,121.87,-14.06,-62.31,28.64,-30.40,-1954.04,800.72,6.16,-12.99,-28.83,-466,-338,-556,0.46,-0.19,-0.50,0.71,120.93,-10.87,-63.81,28.17,male1_walking1
394,4779080,441.22,-2000.00,873.23,22.43,-0.31,-76.80,-466,-338,-556,0.48,-0.18,-0.50,0.70,119.18,-13.06,-63.77,28.64,-185.79,-1905.64,735.90,4.18,-10.48,-27.99,-466,-338,-556,0.46,-0.22,-0.50,0.70,119.01,-9.08,-65.12,28.17,male1_walking1
395,4779136,289.73,-1945.62,970.70,22.28,11.73,-76.10,-466,-338,-556,0.48,-0.21,-0.49,0.70,117.24,-10.59,-63.78,28.65,-223.08,-1954.28,801.64,3.97,19.02,-38.69,-205,-335,-539,0.47,-0.24,-0.48,0.70,117.00,-6.80,-64.70,28.16,male1_walking1
396,4779193,516.42,-2000.00,929.75,2.86,31.74,-70.87,-205,-335,-539,0.49,-0.22,-0.49,0.69,116.10,-10.14,-64.57,28.64,-160.16,-2000.00,746.83,2.19,2.94,-53.40,-205,-335,-539,0.47,-0.24,-0.49,0.69,116.49,-7.72,-65.80,28.16,male1_walking1
397,4779249,312.62,-2000.00,872.25,-4.14,-17.70,-63.37,-205,-335,-539,0.48,-0.22,-0.50,0.69,117.18,-9.81,-66.14,28.63,-368.90,-1987.49,597.90,4.42,-24.04,-76.06,-205,-335,-539,0.46,-0.25,-0.50,0.69,117.89,-6.70,-68.00,28.18,male1_walking1
398,4779305,231.45,-2000.00,837.65,-16.60,-31.07,-55.22,-307,-318,-553,0.46,-0.24,-0.51,0.69,118.02,-8.45,-68.33,28.63,-313.84,-2000.00,783.39,7.16,-5.74,-106.35,-307,-318,-553,0.46,-0.25,-0.50,0.69,117.06,-6.77,-68.10,28.16,male1_walking1
399,4779362,89.54,-2000.00,1143.01,-29.23,-27.55,-13.49,-307,-318,-553,0.46,-0.25,-0.49,0.70,117.55,-6.12,-66.72,28.63,-587.52,-2000.00,691.71,-3.94,-0.66,-145.41,-307,-318,-553,0.46,-0.27,-0.49,0.69,116.00,-3.98,-67.83,28.18,male1_walking1
400,4779419,-216.92,-2000.00,608.09,-43.18,-16.55,28.70,-409,-332,-556,0.43,-0.30,-0.49,0.69,117.17,-0.43,-70.68,28.63,-715.94,-2000.00,717.71,5.46,11.38,-139.64,-409,-332,-556,0.43,-0.31,-0.48,0.69,115.62,1.13,-70.44,28.17,male1_walking1
401,4779476,267.52,-2000.00,1156.13,-52.18,78.54,41.93,-409,-332,-556,0.45,-0.31,-0.47,0.69,114.19,0.88,-68.93,28.63,442.93,-2000.00,1315.61,2.18,175.18,-93.73,-409,-332,-556,0.50,-0.30,-0.45,0.68,109.21,-2.74,-65.37,28.17,male1_walking1
402,4779533,1119.38,-2000.00,921.81,-50.45,96.88,92.33,-470,-332,-654,0.51,-0.28,-0.47,0.66,108.96,-5.92,-66.75,28.63,738.40,-1507.57,1072.57,-1.65,70.28,-51.99,-470,-332,-654,0.54,-0.25,-0.47,0.65,107.57,-10.41,-63.53,28.19,male1_walking1
403,4779589,978.94,-1959.66,961.79,-35.35,6.55,105.32,-470,-332,-654,0.52,-0.24,-0.49,0.66,110.68,-11.38,-64.82,28.62,259.28,-1472.17,1160.22,-56.83,36.21,88.22,-470,-332,-654,0.51,-0.25,-0.46,0.68,111.12,-7.83,-62.82,28.17,male1_walking1
404,4779646,803.22,-1779.97,1053.22,-2.90,37.02,139.14,-470,-332,-654,0.50,-0.24,-0.46,0.69,112.62,-7.55,-62.06,28.65,440.06,-1432.31,1177.19,-85.95,23.52,157.84,-253,-270,-502,0.48,-0.25,-0.45,0.71,114.53,-5.02,-61.52,28.14,male1_walking1
405,4779703,909.06,-1729.68,982.42,14.18,28.14,132.55,-253,-270,-502,0.48,-0.23,-0.46,0.71,115.92,-6.80,-60.95,28.64,407.04,-1484.07,1057.86,-96.24,-36.41,233.50,-253,-270,-502,0.45,-0.24,-0.46,0.73,119.41,-3.36,-62.21,28.15,male1_walking1
406,4779759,785.58,-1537.84,899.11,5.49,24.38,95.10,-253,-270,-502,0.46,-0.22,-0.46,0.72,118.94,-6.44,-61.40,28.64,373.72,-1584.47,979.06,-115.36,-15.01,249.99,-253,-270,-502,0.42,-0.25,-0.47,0.73,121.39,-2.04,-63.99,28.17,male1_walking1
407,4779816,655.52,-1671.87,899.41,26.42,57.82,52.69,-456,-338,-472,0.45,-0.23,-0.47,0.73,119.77,-5.15,-62.54,28.64,121.77,-2000.00,694.15,-107.70,-11.80,249.99,-456,-338,-472,0.40,-0.27,-0.49,0.73,122.88,0.78,-67.68,28.17,male1_walking1
408,4779873,-33.26,-2000.00,278.75,41.53,80.20,32.95,-456,-338,-472,0.40,-0.30,-0.49,0.71,119.96,2.24,-70.87,28.64,-709.72,-1705.93,466.98,-31.11,-20.13,145.19,-456,-338,-472,0.35,-0.36,-0.48,0.72,121.24,10.67,-72.80,28.16,male1_walking1
409,4779929,-566.83,-2000.00,482.60,14.35,-42.36,20.46,-470,-338,-394,0.34,-0.36,-0.48,0.73,121.74,11.93,-73.41,28.64,-323.97,-1721.07,923.52,54.82,20.79,-101.12,-470,-338,-394,0.37,-0.34,-0.46,0.73,120.12,8.38,-69.43,28.16,male1_walking1
410,4779986,738.16,-1743.16,1121.09,-1.48,-28.72,-22.58,-470,-338,-394,0.42,-0.27,-0.48,0.72,120.56,-0.56,-66.48,28.62,-246.52,-2000.00,175.96,27.03,46.96,-42.09,-470,-338,-394,0.41,-0.30,-0.50,0.70,119.21,1.08,-70.84,28.15,male1_walking1
411,4780042,52.37,-2000.00,254.09,-2.10,7.93,-36.88,-463,-338,-391,0.40,-0.30,-0.52,0.69,119.43,-0.22,-74.08,28.65,144.17,-2000.00,898.19,45.97,33.13,-103.76,-463,-338,-391,0.43,-0.28,-0.51,0.69,118.75,-3.08,-70.49,28.16,male1_walking1
412,4780098,937.62,-1601.81,1176.15,7.16,62.00,-60.90,-463,-338,-391,0.48,-0.22,-0.50,0.69,117.18,-10.36,-65.36,28.62,-27.65,-2000.00,813.54,34.48,-31.30,-66.38,-463,-338,-391,0.46,-0.21,-0.49,0.71,119.48,-8.65,-64.72,28.15,male1_walking1
413,4780158,335.33,-1993.77,910.34,18.09,5.86,-75.80,-470,-304,-391,0.47,-0.20,-0.49,0.70,118.93,-10.54,-64.11,28.63,-89.11,-1863.28,885.68,20.99,38.07,-49.19,-470,-304,-391,0.47,-0.22,-0.48,0.71,118.22,-7.74,-63.35,28.15,male1_walking1
414,4780215,604.74,-2000.00,1004.33,21.77,19.91,-66.22,-470,-304,-391,0.49,-0.20,-0.48,0.70,117.51,-11.21,-62.41,28.64,-0.67,-2000.00,830.63,13.80,3.02,-40.58,-470,-304,-391,0.47,-0.21,-0.48,0.71,118.17,-8.92,-63.17,28.15,male1_walking1
415,4780272,552.86,-1977.05,970.40,17.81,7.34,-83.11,-470,-304,-391,0.49,-0.19,-0.49,0.70,117.70,-12.21,-62.55,28.62,-185.97,-1943.60,819.76,12.57,-15.79,-36.77,-322,-330,-103,0.43,-0.20,-0.47,0.75,124.45,-6.41,-61.37,28.16,male1_walking1
416,4780328,345.58,-1987.37,886.41,18.49,-8.26,-72.86,-322,-330,-103,0.41,-0.17,-0.48,0.76,128.43,-7.48,-60.46,28.64,-267.82,-1946.90,714.97,9.86,-12.98,-41.55,-322,-330,-103,0.36,-0.18,-0.48,0.78,132.10,-3.53,-61.41,28.16,male1_walking1
417,4780384,273.32,-1961.00,960.39,23.44,11.90,-83.64,-322,-330,-103,0.36,-0.16,-0.48,0.78,133.45,-5.51,-60.31,28.63,-201.90,-1950.99,716.98,10.10,25.59,-49.87,-463,-311,-108,0.35,-0.19,-0.48,0.78,132.96,-2.88,-62.37,28.16,male1_walking1
418,4780440,610.66,-1998.29,892.94,7.44,26.95,-67.79,-463,-311,-108,0.38,-0.16,-0.50,0.77,132.15,-7.21,-62.69,28.62,-50.48,-2000.00,775.70,8.09,3.05,-59.71,-463,-311,-108,0.37,-0.17,-0.50,0.77,132.77,-5.62,-63.43,28.15,male1_walking1
419,4780497,407.84,-2000.00,932.43,-0.85,-24.69,-65.38,-463,-311,-108,0.37,-0.15,-0.51,0.76,133.71,-8.46,-63.32,28.63,-379.70,-1965.21,639.89,6.45,-26.49,-78.25,-454,-306,-116,0.35,-0.17,-0.51,0.77,134.73,-4.99,-65.05,28.16,male1_walking1
420,4780553,241.33,-1984.62,826.72,-15.67,-27.68,-60.33,-454,-306,-116,0.35,-0.16,-0.52,0.76,135.46,-6.83,-65.75,28.65,-256.59,-2000.00,736.51,10.25,1.25,-103.68,-454,-306,-116,0.34,-0.17,-0.52,0.76,135.17,-5.30,-65.99,28.16,male1_walking1
421,4780611,192.02,-2000.00,1034.36,-28.23,-35.27,-19.39,-454,-306,-116,0.34,-0.16,-0.52,0.77,136.52,-5.69,-65.46,28.63,-581.73,-2000.00,775.45,5.32,-22.39,-140.45,-454,-306,-116,0.33,-0.18,-0.51,0.77,136.02,-3.56,-65.86,28.16,male1_walking1
422,4780668,-392.64,-2000.00,802.00,-39.63,-39.76,26.76,-470,-311,-125,0.30,-0.21,-0.52,0.78,137.72,1.01,-67.67,28.64,-726.99,-2000.00,38.51,1.61,29.28,-144.58,-470,-311,-125,0.30,-0.24,-0.54,0.75,135.20,2.44,-72.94,28.17,male1_walking1
423,4780725,313.11,-2000.00,1110.11,-50.68,61.61,41.90,-470,-311,-125,0.31,-0.23,-0.53,0.75,134.51,1.55,-70.64,28.63,383.12,-2000.00,1387.02,21.35,157.23,-110.97,-470,-311,-125,0.37,-0.21,-0.50,0.76,129.86,-2.44,-65.53,28.17,male1_walking1
424,4780781,1011.60,-2000.00,1006.71,-56.11,106.93,84.80,-199,-277,-125,0.36,-0.19,-0.51,0.76,132.09,-4.27,-65.49,28.64,685.49,-1504.33,1078.92,-2.67,68.57,-67.89,-199,-277,-125,0.38,-0.15,-0.50,0.77,132.57,-8.78,-61.92,28.16,male1_walking1
425,4780837,961.85,-2000.00,1038.45,-40.82,20.44,104.87,-199,-277,-125,0.35,-0.13,-0.51,0.77,136.97,-9.41,-62.83,28.63,258.54,-1449.65,1273.80,-62.23,44.94,77.55,-199,-277,-125,0.33,-0.13,-0.49,0.80,138.44,-6.25,-60.30,28.17,male1_walking1
426,4780894,925.11,-1850.71,1108.34,-4.99,42.98,131.56,-141,-325,-60,0.29,-0.10,-0.49,0.82,145.23,-6.64,-59.21,28.63,352.29,-1404.97,1281.92,-88.26,28.55,149.38,-141,-325,-60,0.24,-0.10,-0.48,0.84,149.78,-3.69,-58.12,28.14,male1_walking1
427,4780951,915.22,-1744.20,1104.19,17.33,50.78,142.99,-141,-325,-60,0.22,-0.07,-0.47,0.85,153.32,-4.93,-57.08,28.63,438.23,-1408.69,1212.59,-122.61,7.90,241.22,-141,-325,-60,0.17,-0.08,-0.48,0.86,157.95,-1.48,-58.30,28.16,male1_walking1
428,4781007,930.73,-1529.05,1025.15,15.90,58.22,97.37,-470,-297,94,0.20,-0.05,-0.48,0.85,157.27,-5.92,-58.10,28.62,487.61,-1455.75,1036.50,-130.84,4.84,249.99,-470,-297,94,0.16,-0.07,-0.51,0.84,160.16,-2.90,-61.34,28.17,male1_walking1
429,4781064,936.95,-1578.61,624.82,15.12,83.95,62.64,-470,-297,94,0.19,-0.04,-0.52,0.83,158.61,-7.57,-63.17,28.62,242.00,-1971.37,726.01,-82.73,-67.29,249.99,-470,-297,94,0.13,-0.07,-0.55,0.82,163.54,-2.11,-67.40,28.17,male1_walking1
430,4781119,62.07,-1953.86,474.98,49.26,26.71,68.39,-470,-297,94,0.12,-0.08,-0.56,0.82,163.68,0.06,-68.53,28.64,-849.24,-1690.98,739.56,-31.80,-135.35,175.62,-470,-171,43,0.04,-0.13,-0.57,0.81,167.92,9.12,-71.02,28.16,male1_walking1
431,4781177,-1106.38,-2000.00,121.89,33.16,-157.95,29.23,-470,-171,43,-0.00,-0.14,-0.60,0.79,170.59,12.47,-75.65,28.63,-461.91,-1818.79,845.03,52.92,22.19,-100.51,-470,-171,43,0.03,-0.12,-0.59,0.80,169.10,9.13,-73.41,28.18,male1_walking1
432,4781233,724.61,-1863.95,1354.49,-4.95,19.21,-45.75,-470,-171,43,0.09,-0.06,-0.58,0.81,167.85,-0.78,-70.79,28.62,-8.06,-2000.00,6.77,15.86,169.49,-72.68,-468,-173,38,0.13,-0.09,-0.62,0.77,161.76,-1.82,-77.26,28.15,male1_walking1
433,4781288,827.03,-1963.44,1332.46,-13.62,127.00,-51.65,-468,-173,38,0.20,-0.06,-0.58,0.78,157.60,-7.40,-71.90,28.63,389.83,-1430.36,1463.20,31.46,82.33,-97.92,-468,-173,38,0.24,-0.05,-0.53,0.81,153.45,-10.53,-63.62,28.15,male1_walking1
434,4781345,1234.50,-1935.42,1088.38,23.17,1.95,-82.83,-468,-173,38,0.29,0.01,-0.53,0.79,151.36,-18.76,-63.06,28.64,62.93,-2000.00,748.17,18.32,-82.60,-76.07,-285,-145,92,0.26,0.00,-0.53,0.81,154.75,-16.16,-62.33,28.16,male1_walking1
435,4781402,360.53,-1823.61,987.85,9.90,-62.87,-86.25,-285,-145,92,0.25,0.02,-0.51,0.82,156.27,-16.78,-60.24,28.63,-99.67,-1952.88,913.82,19.28,50.09,-38.44,-285,-145,92,0.23,-0.02,-0.50,0.83,155.72,-11.50,-59.50,28.19,male1_walking1
436,4781458,596.37,-2000.00,964.42,14.14,10.40,-72.89,-285,-145,92,0.25,-0.00,-0.50,0.83,155.21,-13.89,-59.30,28.64,-103.64,-1964.23,857.42,10.64,-21.21,-41.13,-285,-145,92,0.22,-0.03,-0.50,0.83,156.25,-10.38,-60.00,28.19,male1_walking1
437,4781515,464.36,-1954.96,969.54,18.82,-4.68,-73.79,-341,-161,107,0.24,-0.01,-0.50,0.83,155.81,-12.68,-59.70,28.64,-198.97,-1957.58,802.98,12.18,-20.64,-36.96,-341,-161,107,0.21,-0.04,-0.51,0.83,156.66,-8.86,-60.86,28.17,male1_walking1
438,4781571,293.27,-2000.00,937.01,27.20,-14.44,-76.95,-341,-161,107,0.22,-0.03,-0.51,0.83,156.48,-10.38,-60.52,28.63,-353.94,-1909.18,779.97,9.92,-11.83,-43.42,-341,-161,107,0.20,-0.06,-0.51,0.83,156.87,-6.03,-61.57,28.16,male1_walking1
439,4781627,451.60,-1997.38,1003.30,14.57,-3.96,-70.79,-466,-171,90,0.23,-0.04,-0.52,0.82,155.32,-10.31,-62.78,28.62,-8.06,-2000.00,848.27,5.70,13.15,-53.05,-466,-171,90,0.23,-0.05,-0.53,0.82,154.38,-8.86,-63.91,28.17,male1_walking1
440,4781684,549.38,-1990.66,1072.94,-7.60,0.60,-71.75,-466,-171,90,0.25,-0.03,-0.53,0.81,153.22,-12.24,-63.52,28.63,-207.76,-2000.00,811.34,4.30,-9.46,-60.41,-466,-171,90,0.24,-0.06,-0.53,0.81,153.04,-9.09,-64.37,28.16,male1_walking1
441,4781740,197.08,-2000.00,872.68,3.14,-42.63,-67.37,-442,-154,47,0.25,-0.05,-0.54,0.80,152.89,-10.82,-65.85,28.63,-492.98,-1984.92,654.54,4.02,-32.80,-84.83,-442,-154,47,0.23,-0.08,-0.55,0.80,152.78,-7.54,-67.57,28.15,male1_walking1
442,4781797,163.02,-2000.00,994.20,-17.41,-36.75,-45.82,-442,-154,47,0.24,-0.07,-0.55,0.80,152.89,-8.45,-67.37,28.64,-479.19,-2000.00,813.29,6.55,-22.20,-123.44,-442,-154,47,0.23,-0.09,-0.55,0.80,151.95,-6.34,-67.60,28.17,male1_walking1
443,4781853,-158.08,-2000.00,1043.95,-26.47,-39.03,-7.39,-442,-154,47,0.22,-0.10,-0.55,0.80,152.51,-4.27,-67.40,28.63,-729.86,-2000.00,330.26,3.48,16.78,-154.95,-470,-120,23,0.23,-0.14,-0.58,0.77,149.51,-2.85,-72.53,28.17,male1_walking1
444,4781909,362.00,-2000.00,593.38,-60.26,-0.65,36.75,-470,-120,23,0.23,-0.13,-0.60,0.76,149.54,-4.29,-75.15,28.64,165.34,-2000.00,789.49,42.40,12.02,-132.52,-470,-120,23,0.26,-0.11,-0.58,0.76,147.99,-7.96,-72.13,28.16,male1_walking1
445,4781965,698.12,-2000.00,971.68,-51.72,62.36,64.26,-470,-120,23,0.28,-0.11,-0.57,0.76,146.48,-8.47,-71.40,28.59,724.24,-1799.93,1129.21,16.69,99.93,-78.76,-239,-72,90,0.32,-0.08,-0.52,0.79,143.43,-11.83,-62.43,28.17,male1_walking1
446,4782021,1341.67,-2000.00,897.77,-46.23,24.92,90.69,-239,-72,90,0.31,-0.06,-0.52,0.79,145.03,-13.47,-62.23,28.63,315.00,-1475.83,1064.58,-1.02,12.30,25.18,-239,-72,90,0.30,-0.07,-0.48,0.82,145.51,-10.61,-57.61,28.16,male1_walking1
447,4782078,836.67,-1852.17,1028.50,-7.71,1.19,119.51,-239,-72,90,0.28,-0.06,-0.48,0.83,147.94,-10.18,-57.88,28.63,407.41,-1386.54,1203.06,-60.20,46.17,126.01,-253,-55,30,0.28,-0.08,-0.49,0.82,147.13,-8.53,-58.98,28.17,male1_walking1
448,4782134,995.73,-1753.11,971.07,17.31,33.17,138.93,-253,-55,30,0.29,-0.06,-0.51,0.81,147.43,-11.00,-60.79,28.62,522.22,-1374.51,1098.21,-75.39,-6.33,212.62,-253,-55,30,0.27,-0.08,-0.51,0.81,149.23,-8.53,-62.03,28.16,male1_walking1
449,4782190,933.41,-1605.35,899.23,31.70,12.28,114.23,-253,-55,30,0.28,-0.05,-0.52,0.81,149.64,-11.87,-62.47,28.64,358.52,-1473.33,929.02,-88.29,-57.59,249.99,-253,-55,30,0.23,-0.07,-0.54,0.81,153.27,-7.32,-65.51,28.15,male1_walking1
450,4782246,696.23,-1468.08,810.79,16.32,6.10,80.67,-454,-131,95,0.24,-0.05,-0.53,0.81,153.89,-9.69,-64.03,28.63,364.50,-1923.34,827.21,-78.45,-77.21,249.99,-454,-131,95,0.18,-0.07,-0.55,0.81,158.40,-4.99,-67.61,28.16,male1_walking1
451,4782302,324.22,-1965.03,709.84,42.22,-17.27,69.05,-454,-131,95,0.17,-0.07,-0.55,0.81,159.52,-4.63,-67.64,28.64,-76.90,-2000.00,728.15,-54.40,-104.00,244.63,-454,-131,95,0.11,-0.09,-0.57,0.81,164.20,1.73,-70.48,28.16,male1_walking1
452,4782358,-1204.22,-2000.00,1054.26,77.83,-46.62,5.08,-358,-174,40,0.07,-0.14,-0.54,0.83,165.07,8.81,-67.17,28.60,-891.54,-1781.19,315.43,19.20,-12.43,-15.78,-358,-174,40,0.06,-0.17,-0.56,0.81,163.39,11.55,-71.70,28.16,male1_walking1
453,4782415,-162.72,-1819.70,983.52,-19.87,-56.82,-1.61,-358,-174,40,0.07,-0.14,-0.56,0.81,164.69,8.19,-70.59,28.63,-314.76,-2000.00,784.12,48.65,96.45,-82.00,-358,-174,40,0.11,-0.14,-0.56,0.81,160.56,6.27,-70.61,28.16,male1_walking1
454,4782471,7.32,-2000.00,93.99,-44.07,114.76,-27.61,-358,-171,40,0.14,-0.16,-0.61,0.76,155.90,4.16,-78.18,28.62,220.89,-2000.00,883.42,41.02,100.67,-104.56,-358,-171,40,0.19,-0.14,-0.58,0.78,153.28,-0.44,-73.07,28.16,male1_walking1
455,4782527,1111.88,-1616.21,827.88,7.03,22.84,-72.59,-358,-171,40,0.25,-0.06,-0.57,0.78,152.13,-10.86,-69.95,28.62,433.29,-1854.19,1107.54,46.84,-29.61,-77.39,-358,-171,40,0.26,-0.04,-0.54,0.80,152.22,-12.92,-64.75,28.15,male1_walking1
456,4782584,640.62,-2000.00,972.53,11.55,-55.61,-70.77,-358,-171,40,0.27,-0.01,-0.54,0.80,153.02,-16.27,-64.08,28.62,-296.94,-1955.32,863.65,17.04,-12.01,-61.81,-412,-147,47,0.25,-0.04,-0.53,0.81,152.58,-11.47,-64.37,28.16,male1_walking1
457,4782640,530.94,-1988.53,1056.40,17.31,-18.47,-68.92,-412,-147,47,0.27,-0.03,-0.53,0.80,151.76,-14.22,-63.61,28.61,11.29,-2000.00,888.37,16.60,5.35,-40.83,-412,-147,47,0.26,-0.05,-0.53,0.80,151.09,-11.46,-63.99,28.13,male1_walking1
458,4782696,473.94,-1982.60,1030.21,16.43,-6.36,-77.09,-412,-147,47,0.28,-0.04,-0.53,0.80,150.00,-13.75,-63.32,28.62,-175.90,-1916.63,876.89,11.48,-10.33,-38.67,-456,-161,23,0.27,-0.07,-0.53,0.80,149.39,-10.20,-64.25,28.17,male1_walking1
459,4782771,456.24,-1990.78,955.08,19.81,-15.65,-72.53,-456,-161,23,0.30,-0.04,-0.54,0.78,147.62,-15.22,-64.49,28.62,-237.37,-1963.56,814.45,10.88,-23.31,-35.30,-456,-161,23,0.28,-0.07,-0.54,0.79,147.90,-10.69,-65.22,28.13,male1_walking1
460,4782829,332.64,-1936.83,998.54,23.90,-12.47,-71.88,-456,-161,23,0.30,-0.06,-0.53,0.79,146.92,-12.40,-64.10,28.63,-229.86,-1952.82,824.16,9.93,-6.22,-43.19,-278,-159,-8,0.28,-0.09,-0.53,0.80,146.91,-8.23,-64.50,28.18,male1_walking1
461,4782884,551.27,-1950.56,991.64,13.40,-5.90,-71.87,-278,-159,-8,0.30,-0.07,-0.53,0.79,146.07,-11.82,-63.66,28.63,-120.54,-2000.00,854.43,8.48,-9.83,-52.62,-278,-159,-8,0.29,-0.09,-0.53,0.80,146.06,-9.20,-64.05,28.15,male1_walking1
462,4782940,395.45,-2000.00,977.72,5.54,-33.16,-62.19,-278,-159,-8,0.30,-0.07,-0.53,0.79,146.23,-11.46,-63.80,28.60,-378.30,-2000.00,735.35,13.40,-24.12,-100.98,-359,-169,-1,0.27,-0.15,-0.54,0.79,144.69,-2.77,-67.98,28.17,male1_walking1
463,4783053,200.26,-2000.00,1046.02,-19.33,-34.65,-28.23,-359,-169,-1,0.27,-0.13,-0.54,0.79,145.13,-4.60,-67.10,28.61,-520.69,-2000.00,771.61,11.64,-20.47,-135.27,-359,-169,-1,0.27,-0.15,-0.53,0.79,144.14,-3.36,-67.29,28.15,male1_walking1
464,4783109,-340.45,-2000.00,1047.42,-32.42,-42.98,24.29,-351,-120,-77,0.27,-0.17,-0.54,0.78,143.06,-1.85,-68.99,28.63,-366.88,-2000.00,-64.64,13.42,43.51,-158.04,-351,-120,-77,0.30,-0.19,-0.59,0.73,138.74,-4.10,-75.96,28.14,male1_walking1
465,4783166,510.07,-2000.00,745.06,-33.71,5.76,35.71,-351,-120,-77,0.32,-0.18,-0.59,0.72,138.08,-6.50,-75.81,28.61,160.22,-2000.00,1031.74,50.64,24.51,-113.40,-351,-120,-77,0.35,-0.16,-0.56,0.73,135.91,-9.05,-71.12,28.15,male1_walking1
466,4783223,786.56,-2000.00,950.44,-50.49,61.15,71.08,-436,-82,-84,0.37,-0.16,-0.57,0.72,133.36,-11.05,-71.76,28.62,762.08,-1499.57,1169.49,27.11,72.75,-80.60,-436,-82,-84,0.43,-0.13,-0.54,0.72,129.24,-16.01,-66.38,28.16,male1_walking1
467,4783279,1134.83,-1985.60,932.43,-33.24,-9.41,100.82,-436,-82,-84,0.42,-0.12,-0.55,0.71,130.24,-17.12,-67.68,28.60,249.69,-1447.63,1155.03,-24.69,23.67,76.38,-436,-82,-84,0.42,-0.14,-0.52,0.73,128.98,-12.65,-64.10,28.14,male1_walking1
468,4783336,864.87,-1823.55,1007.51,5.87,5.74,128.48,-427,-97,-15,0.40,-0.14,-0.51,0.75,130.62,-11.75,-63.12,28.62,408.63,-1383.85,1150.57,-57.35,15.16,145.76,-427,-97,-15,0.39,-0.15,-0.49,0.76,131.30,-8.59,-61.67,28.15,male1_walking1
469,4783392,931.46,-1708.44,1015.44,23.51,20.77,138.44,-427,-97,-15,0.39,-0.14,-0.49,0.76,132.04,-10.18,-61.09,28.60,454.83,-1430.05,1080.20,-81.96,-18.47,231.22,-427,-97,-15,0.36,-0.15,-0.49,0.78,134.54,-6.74,-62.18,28.16,male1_walking1
470,4783449,821.29,-1548.03,914.31,26.14,15.15,97.50,-427,-97,-15,0.37,-0.13,-0.50,0.77,134.42,-10.30,-61.78,28.63,356.81,-1444.09,951.42,-91.64,-32.73,249.99,-239,-208,9,0.30,-0.14,-0.49,0.81,141.87,-3.32,-60.95,28.17,male1_walking1
471,4783505,642.40,-1563.35,895.75,22.86,9.45,72.24,-239,-208,9,0.29,-0.11,-0.48,0.82,144.61,-5.11,-58.66,28.63,261.78,-2000.00,749.08,-82.15,-75.93,249.99,-239,-208,9,0.22,-0.13,-0.51,0.83,151.00,-0.61,-62.82,28.16,male1_walking1
472,4783560,221.86,-2000.00,500.24,38.85,-5.06,61.78,-239,-208,9,0.20,-0.13,-0.52,0.82,152.60,-0.43,-65.00,28.63,-308.04,-1885.74,665.22,-52.72,-93.65,206.31,-359,-210,-11,0.14,-0.16,-0.55,0.81,156.29,5.68,-69.32,28.14,male1_walking1
473,4783616,-1378.05,-2000.00,491.52,22.81,-55.93,14.66,-359,-210,-11,0.11,-0.20,-0.55,0.80,156.34,11.78,-71.74,28.62,-591.37,-1746.28,743.29,38.35,26.43,-73.14,-359,-210,-11,0.13,-0.20,-0.55,0.80,153.85,10.50,-71.33,28.17,male1_walking1
474,4783674,170.41,-1674.01,1184.88,-17.91,-19.59,-18.19,-359,-210,-11,0.17,-0.16,-0.54,0.81,153.80,4.44,-68.57,28.61,-541.50,-2000.00,60.00,24.18,75.15,-45.03,-463,-222,-10,0.18,-0.20,-0.58,0.77,149.36,5.77,-75.26,28.14,male1_walking1
475,4783730,66.35,-2000.00,443.60,-53.88,54.72,-21.25,-463,-222,-10,0.20,-0.20,-0.60,0.75,147.48,3.30,-77.84,28.62,296.14,-1915.71,877.75,39.82,44.65,-116.92,-463,-222,-10,0.25,-0.16,-0.57,0.76,145.84,-2.64,-73.11,28.17,male1_walking1
476,4783786,1064.33,-1652.28,1322.69,11.92,72.18,-60.15,-463,-222,-10,0.31,-0.10,-0.54,0.77,143.00,-10.58,-66.64,28.61,270.87,-2000.00,868.04,32.20,-84.09,-76.62,-463,-222,-10,0.31,-0.08,-0.54,0.78,144.76,-12.18,-65.49,28.16,male1_walking1
477,4783843,294.43,-2000.00,946.35,10.54,-52.15,-76.35,-456,-229,47,0.30,-0.06,-0.53,0.79,146.28,-12.74,-63.70,28.62,-231.81,-1855.59,925.78,20.23,35.50,-50.36,-456,-229,47,0.29,-0.10,-0.51,0.81,145.58,-7.91,-61.99,28.15,male1_walking1
478,4783899,578.92,-2000.00,996.40,19.29,13.18,-67.46,-456,-229,47,0.31,-0.08,-0.51,0.80,144.72,-11.11,-61.28,28.60,21.36,-1987.06,887.27,15.95,-4.96,-43.88,-456,-229,47,0.30,-0.09,-0.51,0.80,145.07,-8.99,-61.44,28.11,male1_walking1
479,4783955,607.06,-1970.46,1028.75,18.07,0.03,-76.38,-461,-220,18,0.32,-0.07,-0.51,0.80,143.92,-12.85,-61.13,28.59,-158.39,-1956.05,889.71,14.47,-25.73,-35.31,-461,-220,18,0.30,-0.09,-0.51,0.80,144.58,-9.35,-61.75,28.16,male1_walking1
480,4784011,394.29,-1987.98,977.17,23.82,-14.84,-73.20,-461,-220,18,0.31,-0.08,-0.51,0.80,144.08,-11.58,-61.53,28.60,-228.33,-1950.99,810.24,10.63,-20.66,-34.64,-461,-220,18,0.29,-0.10,-0.51,0.80,144.62,-7.84,-62.69,28.15,male1_walking1
481,4784068,296.63,-1947.88,1042.30,24.02,-26.54,-75.27,-293,-202,3,0.30,-0.08,-0.50,0.81,145.24,-9.75,-60.80,28.62,-272.77,-1961.36,827.09,9.83,-5.62,-45.49,-293,-202,3,0.28,-0.11,-0.50,0.81,145.74,-6.18,-61.62,28.18,male1_walking1
482,4784124,549.13,-1983.64,1022.16,7.71,1.67,-66.15,-293,-202,3,0.30,-0.08,-0.51,0.81,145.32,-9.83,-61.21,28.63,-98.63,-2000.00,826.54,7.74,-9.06,-56.43,-293,-202,3,0.29,-0.10,-0.51,0.81,145.83,-7.65,-62.05,28.15,male1_walking1
483,4784180,393.07,-2000.00,931.34,2.75,-31.46,-60.79,-293,-202,3,0.29,-0.08,-0.51,0.80,146.60,-10.00,-62.30,28.62,-415.95,-1963.81,695.31,11.28,-46.42,-73.86,-354,-202,-17,0.27,-0.10,-0.52,0.80,146.87,-6.85,-64.52,28.15,male1_walking1
484,4784236,187.19,-2000.00,890.32,-1.63,-57.50,-62.64,-354,-202,-17,0.28,-0.09,-0.53,0.79,147.40,-8.77,-65.32,28.61,-375.37,-2000.00,759.46,14.17,-14.80,-103.61,-354,-202,-17,0.27,-0.11,-0.53,0.79,146.65,-6.56,-65.96,28.17,male1_walking1
485,4784293,240.78,-2000.00,1038.57,-21.51,-29.41,-26.41,-354,-202,-17,0.27,-0.10,-0.53,0.79,146.95,-7.54,-65.71,28.61,-564.51,-2000.00,792.97,12.65,-20.24,-133.65,-388,-161,-67,0.29,-0.13,-0.54,0.78,144.16,-6.40,-67.52,28.16,male1_walking1
486,4784350,-432.98,-2000.00,900.27,-32.87,-42.06,28.11,-388,-161,-67,0.27,-0.16,-0.55,0.78,144.18,-2.31,-69.33,28.62,-359.01,-2000.00,-81.05,19.76,31.88,-159.40,-388,-161,-67,0.29,-0.18,-0.59,0.73,140.76,-3.98,-75.93,28.16,male1_walking1
487,4784407,454.59,-2000.00,699.40,-39.09,-10.84,36.92,-388,-161,-67,0.29,-0.17,-0.59,0.73,141.11,-5.54,-75.77,28.62,139.89,-2000.00,1038.27,49.26,38.04,-104.72,-466,-61,-67,0.34,-0.15,-0.57,0.74,137.95,-9.35,-71.98,28.15,male1_walking1
488,4784463,888.06,-2000.00,972.29,-50.11,54.42,78.24,-466,-61,-67,0.36,-0.15,-0.58,0.72,135.88,-11.72,-72.42,28.62,942.75,-1404.30,1075.50,21.37,62.63,-64.86,-466,-61,-67,0.42,-0.10,-0.55,0.71,131.59,-18.70,-67.06,28.16,male1_walking1
489,4784519,1205.57,-1953.61,842.22,-37.27,-15.97,96.17,-466,-61,-67,0.42,-0.09,-0.57,0.70,132.82,-19.82,-68.89,28.61,302.80,-1405.09,1084.53,-9.24,-16.45,70.98,-466,-61,-67,0.41,-0.11,-0.53,0.73,132.37,-15.70,-65.06,28.13,male1_walking1
490,4784575,831.85,-1780.03,1009.03,0.62,-13.44,125.72,-348,-120,-6,0.38,-0.11,-0.52,0.76,135.18,-13.30,-63.02,28.62,337.77,-1395.81,1180.60,-67.24,19.67,164.03,-348,-120,-6,0.35,-0.13,-0.50,0.78,136.30,-8.29,-61.36,28.13,male1_walking1
491,4784632,937.44,-1675.42,1016.72,25.66,20.02,132.43,-348,-120,-6,0.36,-0.11,-0.49,0.79,137.20,-9.84,-60.45,28.61,493.96,-1440.49,1052.43,-86.37,-34.94,249.99,-348,-120,-6,0.32,-0.13,-0.50,0.80,140.65,-6.31,-62.00,28.16,male1_walking1
492,4784689,791.44,-1522.09,954.90,23.30,-5.74,90.74,-253,-338,90,0.27,-0.07,-0.47,0.84,148.25,-7.55,-56.03,28.62,223.27,-1644.53,943.66,-95.56,-52.29,249.99,-253,-338,90,0.18,-0.08,-0.47,0.86,156.92,-1.72,-57.58,28.15,male1_walking1
493,4784745,503.17,-1796.69,852.72,29.44,11.97,81.02,-253,-338,90,0.16,-0.06,-0.47,0.86,160.41,-2.60,-56.92,28.60,180.85,-2000.00,688.78,-75.71,-82.38,249.99,-253,-338,90,0.09,-0.07,-0.51,0.86,167.70,1.48,-61.45,28.14,male1_walking1
494,4784800,32.47,-1792.97,396.67,65.78,-29.42,49.64,-409,-335,-10,0.10,-0.07,-0.55,0.83,165.86,0.47,-67.15,28.61,-497.01,-1770.69,734.13,-28.59,-89.46,154.34,-409,-335,-10,0.06,-0.10,-0.56,0.82,167.79,6.04,-69.43,28.15,male1_walking1
495,4784857,-1095.58,-2000.00,427.49,17.78,-106.96,19.92,-409,-335,-10,0.02,-0.14,-0.58,0.80,168.68,10.98,-72.89,28.60,-342.10,-1686.89,837.65,44.94,99.46,-91.01,-409,-335,-10,0.07,-0.14,-0.57,0.81,163.74,8.37,-71.32,28.14,male1_walking1
496,4784916,1074.10,-1976.50,1182.43,-23.52,90.13,-64.16,-409,-335,-10,0.16,-0.08,-0.57,0.80,159.57,-2.79,-70.72,28.59,14.47,-2000.00,205.14,24.12,158.21,-87.00,-470,-523,-30,0.19,-0.11,-0.59,0.78,155.01,-2.92,-73.24,28.14,male1_walking1
497,4784973,1212.65,-1836.85,1227.84,-11.32,61.36,-64.03,-470,-523,-30,0.24,-0.05,-0.56,0.79,153.84,-11.05,-68.39,28.60,421.81,-1454.10,1378.23,38.37,11.06,-91.95,-470,-523,-30,0.26,-0.02,-0.51,0.82,152.91,-13.47,-60.44,28.14,male1_walking1
498,4785030,950.93,-2000.00,1207.03,30.81,-16.28,-67.09,-470,-523,-30,0.28,0.02,-0.50,0.82,153.11,-17.69,-58.70,28.61,-341.43,-2000.00,761.11,14.70,-62.52,-73.60,-468,-337,-15,0.25,-0.02,-0.52,0.82,153.82,-13.28,-61.90,28.15,male1_walking1
499,4785086,205.57,-1800.05,973.88,25.36,-60.69,-80.18,-468,-337,-15,0.26,-0.01,-0.52,0.82,153.80,-14.11,-61.53,28.59,36.68,-1997.68,888.06,23.02,60.64,-38.24,-468,-337,-15,0.26,-0.05,-0.52,0.81,151.58,-10.75,-62.05,28.14,male1_walking1
500,4785143,518.25,-2000.00,900.39,14.64,14.27,-71.98,-468,-337,-15,0.28,-0.04,-0.52,0.80,150.16,-13.29,-62.59,28.61,-160.46,-1953.86,891.97,17.66,-20.73,-46.46,-236,-338,-3,0.24,-0.05,-0.51,0.82,153.35,-9.48,-61.84,28.15,male1_walking1
501,4785200,483.15,-1973.75,1023.50,14.98,-5.97,-68.17,-236,-338,-3,0.24,-0.03,-0.51,0.83,154.75,-11.64,-60.71,28.62,-163.76,-2000.00,835.63,13.98,-25.78,-39.49,-236,-338,-3,0.21,-0.04,-0.51,0.83,157.06,-8.25,-61.60,28.13,male1_walking1
502,4785256,355.35,-1996.52,949.83,21.98,-32.06,-68.24,-236,-338,-3,0.21,-0.02,-0.51,0.83,158.35,-10.46,-61.29,28.62,-272.89,-1933.53,824.71,12.00,-30.78,-45.13,-236,-338,-3,0.18,-0.04,-0.52,0.84,159.72,-7.07,-62.17,28.16,male1_walking1
503,4785313,441.22,-1956.79,1040.04,15.30,-19.26,-69.69,-307,-325,-40,0.21,-0.02,-0.52,0.83,157.78,-10.85,-62.35,28.60,-41.26,-1962.22,816.41,8.45,-3.75,-49.53,-307,-325,-40,0.21,-0.04,-0.53,0.82,156.79,-9.10,-63.71,28.15,male1_walking1
504,4785369,586.36,-1949.52,1047.00,2.43,-5.48,-67.92,-307,-325,-40,0.24,-0.02,-0.53,0.81,155.48,-12.75,-63.21,28.63,-157.84,-2000.00,884.22,5.87,-14.57,-52.45,-307,-325,-40,0.23,-0.04,-0.53,0.82,155.27,-9.72,-63.86,28.15,male1_walking1
505,4785425,253.85,-2000.00,943.73,6.04,-35.00,-64.79,-348,-311,-71,0.24,-0.04,-0.54,0.81,154.03,-11.34,-64.68,28.61,-511.72,-1949.83,630.80,6.81,-31.07,-77.13,-348,-311,-71,0.23,-0.08,-0.55,0.80,153.38,-7.25,-66.93,28.16,male1_walking1
506,4785481,285.28,-2000.00,891.48,-11.38,-35.02,-51.93,-348,-311,-71,0.24,-0.06,-0.55,0.80,153.02,-9.32,-67.44,28.62,-235.05,-2000.00,796.45,13.11,-20.36,-106.66,-348,-311,-71,0.24,-0.08,-0.55,0.80,152.10,-8.19,-67.45,28.15,male1_walking1
