,timestamp,top_accel_x,top_accel_y,top_accel_z,top_mag_x,top_mag_y,top_mag_z,top_gy_x,top_gy_y,top_gy_z,top_q0,top_qx,top_qy,top_qz,top_yaw,top_pitch,top_roll,top_temperature,bottom_accel_x,bottom_accel_y,bottom_accel_z,bottom_mag_x,bottom_mag_y,bottom_mag_z,bottom_gy_x,bottom_gy_y,bottom_gy_z,bottom_q0,bottom_qx,bottom_qy,bottom_qz,bottom_yaw,bottom_pitch,bottom_roll,bottom_temperature,action
0,4501481,376.83,-2000.00,1005.80,-16.96,-27.15,-39.92,-359,-214,-79,0.33,-0.12,-0.54,0.77,140.21,-9.27,-66.69,28.34,-334.29,-2000.00,856.75,10.21,-22.87,-109.60,-359,-214,-79,0.32,-0.14,-0.53,0.77,139.65,-7.42,-66.33,27.54,male1_walking0
1,4501537,3.54,-2000.00,1048.03,-24.02,-32.29,-8.45,-381,-212,-121,0.32,-0.15,-0.53,0.77,139.18,-6.45,-66.61,28.34,-639.22,-2000.00,626.28,0.89,8.30,-138.15,-381,-212,-121,0.33,-0.18,-0.53,0.76,136.83,-4.37,-68.42,27.55,male1_walking0
2,4501594,21.12,-2000.00,306.58,-57.63,2.53,36.90,-381,-212,-121,0.31,-0.21,-0.57,0.73,136.80,-2.70,-74.39,28.35,14.83,-1939.94,691.10,35.29,2.66,-129.42,-381,-212,-121,0.33,-0.19,-0.56,0.74,135.66,-5.41,-72.43,27.54,male1_walking0
3,4501651,514.95,-2000.00,1001.65,-47.78,32.54,52.84,-381,-212,-121,0.34,-0.18,-0.55,0.74,135.10,-5.79,-71.10,28.35,566.47,-2000.00,1218.08,39.19,110.21,-99.19,-444,-118,-69,0.40,-0.16,-0.53,0.73,129.87,-10.58,-66.52,27.52,male1_walking0
4,4501707,1272.03,-2000.00,956.91,-47.24,37.21,78.81,-444,-118,-69,0.41,-0.15,-0.54,0.72,129.49,-13.75,-67.54,28.34,318.97,-1577.70,1051.57,-2.26,20.92,-4.93,-444,-118,-69,0.42,-0.15,-0.52,0.73,128.46,-12.39,-64.30,27.54,male1_walking0
5,4501764,805.60,-1877.87,1065.92,-22.37,14.40,112.66,-444,-118,-69,0.41,-0.15,-0.51,0.74,129.22,-11.68,-64.17,28.36,304.69,-1441.59,1302.92,-59.92,55.53,92.48,-456,-61,36,0.41,-0.17,-0.48,0.76,128.23,-7.67,-61.06,27.54,male1_walking0
6,4501821,892.52,-1777.34,1021.79,3.09,48.33,127.00,-456,-61,36,0.41,-0.16,-0.49,0.75,128.40,-8.88,-61.22,28.33,385.99,-1504.09,1160.16,-84.03,11.15,177.83,-456,-61,36,0.39,-0.18,-0.48,0.76,129.83,-5.69,-61.74,27.54,male1_walking0
7,4501876,756.96,-1755.00,990.30,23.64,33.60,119.06,-456,-61,36,0.39,-0.17,-0.49,0.76,130.02,-7.48,-61.51,28.33,371.28,-1628.54,1011.60,-107.22,5.66,232.91,-346,-56,119,0.35,-0.20,-0.48,0.78,133.14,-1.61,-62.63,27.56,male1_walking0
8,4501933,693.91,-1738.46,808.78,10.10,37.25,91.99,-346,-56,119,0.35,-0.18,-0.49,0.78,133.54,-3.52,-62.61,28.33,322.14,-1736.39,977.23,-113.43,-22.90,249.99,-346,-56,119,0.30,-0.20,-0.49,0.79,137.19,1.15,-64.62,27.54,male1_walking0
9,4501989,640.20,-1814.82,909.06,26.28,28.98,50.93,-346,-56,119,0.32,-0.18,-0.50,0.79,137.06,-2.48,-63.39,28.34,21.00,-2000.00,656.49,-106.42,-53.85,249.99,-346,-56,119,0.26,-0.21,-0.52,0.79,141.13,3.34,-67.89,27.56,male1_walking0
10,4502044,-215.58,-1959.47,479.06,20.63,65.98,45.27,-456,-120,-118,0.29,-0.24,-0.54,0.75,135.85,2.34,-72.56,28.34,-417.60,-1816.83,525.45,-43.31,37.65,133.40,-456,-120,-118,0.28,-0.28,-0.55,0.74,133.97,6.19,-75.69,27.55,male1_walking0
11,4502102,-769.41,-2000.00,469.24,-2.08,62.05,18.52,-456,-120,-118,0.28,-0.32,-0.54,0.72,130.31,8.54,-77.94,28.35,-560.73,-1709.53,774.29,28.41,93.19,-34.82,-456,-120,-118,0.32,-0.32,-0.52,0.72,126.74,8.04,-75.64,27.55,male1_walking0
12,4502157,92.16,-1763.85,1266.05,-6.74,34.10,6.46,-458,-97,-65,0.36,-0.28,-0.50,0.73,125.26,2.88,-70.66,28.34,1.83,-2000.00,956.42,66.13,119.33,-59.35,-458,-97,-65,0.41,-0.28,-0.49,0.72,120.70,0.15,-68.01,27.55,male1_walking0
13,4502215,445.92,-2000.00,174.44,7.88,117.20,-22.30,-458,-97,-65,0.44,-0.29,-0.52,0.67,116.80,-3.68,-72.77,28.33,300.11,-2000.00,437.07,57.97,35.97,-82.05,-458,-97,-65,0.46,-0.28,-0.52,0.67,115.57,-6.31,-72.07,27.54,male1_walking0
14,4502271,786.25,-1849.43,1144.41,11.62,-20.23,-75.35,-458,-97,-65,0.49,-0.22,-0.51,0.67,115.55,-11.65,-67.33,28.35,27.95,-1722.96,1352.54,44.60,15.41,-54.71,-331,-65,-118,0.51,-0.22,-0.46,0.69,113.83,-9.74,-61.15,27.56,male1_walking0
15,4502326,607.42,-2000.00,1012.02,25.46,8.21,-60.49,-331,-65,-118,0.52,-0.20,-0.47,0.68,112.54,-12.81,-60.93,28.34,-319.64,-1975.46,659.42,20.91,-12.96,-50.78,-331,-65,-118,0.50,-0.24,-0.47,0.69,112.92,-8.42,-63.15,27.57,male1_walking0
16,4502383,317.08,-1950.38,1128.85,19.33,-81.80,-57.71,-331,-65,-118,0.51,-0.21,-0.47,0.69,113.93,-11.08,-61.95,28.34,-135.25,-2000.00,904.97,27.15,44.23,-31.72,-334,0,-37,0.51,-0.24,-0.46,0.69,111.92,-8.28,-62.35,27.56,male1_walking0
17,4502439,526.61,-2000.00,984.25,11.72,27.06,-47.14,-334,0,-37,0.53,-0.23,-0.47,0.66,109.81,-11.73,-62.58,28.34,-210.94,-1939.39,801.51,5.49,-11.19,-19.08,-470,44,-50,0.49,-0.34,-0.46,0.65,106.51,-0.43,-70.15,27.55,male1_walking0
18,4502590,357.67,-1958.74,953.49,20.39,17.81,-56.82,-470,44,-50,0.54,-0.30,-0.47,0.63,103.73,-7.48,-67.94,28.32,-289.61,-1938.05,750.43,2.02,19.17,-18.68,-470,44,-50,0.54,-0.32,-0.46,0.63,102.46,-4.86,-68.24,27.54,male1_walking0
19,4502646,173.34,-1970.03,1012.33,18.05,52.60,-68.09,-375,-113,-67,0.54,-0.32,-0.43,0.65,102.56,-3.07,-64.56,28.33,-366.52,-1965.45,714.90,3.63,52.03,-33.24,-375,-113,-67,0.52,-0.35,-0.41,0.66,102.85,2.15,-64.99,27.55,male1_walking0
20,4502702,439.88,-2000.00,948.30,-2.71,57.95,-57.22,-375,-113,-67,0.54,-0.33,-0.42,0.65,101.92,-0.88,-64.52,28.32,-170.29,-1981.14,640.01,5.39,25.22,-49.26,-375,-113,-67,0.52,-0.35,-0.41,0.66,102.45,1.72,-65.68,27.55,male1_walking0
21,4502758,363.22,-1986.39,867.98,-15.72,9.40,-50.78,-375,-113,-67,0.53,-0.33,-0.43,0.65,103.00,-1.01,-65.79,28.34,-257.57,-1962.83,674.32,9.40,17.26,-61.00,-415,126,-67,0.57,-0.33,-0.44,0.61,98.03,-5.39,-66.15,27.55,male1_walking0
22,4502814,386.78,-1983.22,935.61,-17.20,-8.51,-28.53,-415,126,-67,0.60,-0.30,-0.45,0.58,95.13,-11.44,-65.69,28.34,-230.53,-2000.00,802.55,14.00,14.39,-81.42,-415,126,-67,0.62,-0.32,-0.44,0.57,92.52,-10.81,-65.57,27.55,male1_walking0
23,4502871,321.90,-2000.00,1048.58,-26.33,-13.86,-4.66,-415,126,-67,0.63,-0.31,-0.45,0.56,91.21,-12.45,-65.21,28.31,-261.23,-2000.00,854.25,10.15,3.16,-106.23,-402,153,-64,0.64,-0.32,-0.43,0.54,88.09,-12.28,-64.67,27.54,male1_walking0
24,4502926,134.09,-2000.00,951.72,-36.62,-15.69,3.85,-402,153,-64,0.65,-0.33,-0.43,0.53,87.04,-12.05,-65.33,28.32,-251.95,-2000.00,232.48,3.43,-9.45,-121.31,-402,153,-64,0.64,-0.37,-0.46,0.49,84.64,-12.41,-71.85,27.54,male1_walking0
25,4502998,268.43,-1847.23,1040.95,-62.50,-8.58,23.44,-402,153,-64,0.65,-0.37,-0.44,0.50,83.34,-12.18,-69.99,28.35,-61.22,-1876.71,1151.98,1.14,55.15,-94.44,-388,98,-44,0.67,-0.37,-0.41,0.50,80.12,-10.24,-65.94,27.54,male1_walking0
26,4503055,512.27,-2000.00,1435.00,-67.57,115.95,37.00,-388,98,-44,0.69,-0.38,-0.38,0.49,77.09,-8.54,-64.25,28.34,431.82,-1759.64,1382.20,-43.00,144.36,-102.63,-388,98,-44,0.72,-0.37,-0.36,0.47,71.71,-9.90,-61.27,27.55,male1_walking0
27,4503111,974.30,-2000.00,1408.20,-70.51,147.27,65.37,-388,98,-44,0.73,-0.38,-0.34,0.45,69.20,-8.51,-61.36,28.33,176.33,-1550.54,1487.49,-128.74,130.65,-0.83,-358,-92,-118,0.70,-0.40,-0.29,0.51,72.39,0.39,-59.87,27.55,male1_walking0
28,4503168,832.09,-1873.78,1387.70,-39.61,162.55,77.00,-358,-92,-118,0.68,-0.41,-0.28,0.54,74.87,3.75,-59.29,28.34,233.58,-1545.84,1469.54,-169.85,131.38,64.01,-358,-92,-118,0.65,-0.43,-0.26,0.57,77.34,8.45,-60.56,27.55,male1_walking0
29,4503225,812.93,-1853.52,1238.83,-25.38,175.64,82.76,-358,-92,-118,0.65,-0.43,-0.27,0.57,77.82,8.55,-60.65,28.34,213.56,-1666.26,1501.53,-188.08,120.22,124.40,-358,-92,-118,0.61,-0.45,-0.26,0.59,80.27,12.46,-62.46,27.54,male1_walking0
30,4503280,611.27,-1883.12,1135.99,-11.78,184.57,72.18,-339,-63,-86,0.63,-0.45,-0.26,0.57,77.81,10.48,-62.72,28.33,-3.48,-1938.90,1390.08,-165.50,146.75,152.14,-339,-63,-86,0.60,-0.48,-0.25,0.58,78.19,14.97,-65.26,27.55,male1_walking0
31,4503337,417.72,-2000.00,1052.12,0.43,211.50,78.96,-339,-63,-86,0.62,-0.49,-0.25,0.56,74.60,13.82,-65.73,28.33,103.70,-2000.00,1291.63,-135.99,209.50,165.08,-339,-63,-86,0.61,-0.52,-0.23,0.56,73.04,17.68,-68.21,27.54,male1_walking0
32,4503394,659.91,-2000.00,962.04,20.68,216.72,68.08,-354,317,-3,0.74,-0.48,-0.19,0.43,56.12,8.06,-61.31,28.30,292.18,-2000.00,1064.51,-91.68,156.01,181.88,-354,317,-3,0.76,-0.49,-0.16,0.39,49.78,7.93,-61.29,27.55,male1_walking0
33,4503450,673.65,-1909.61,906.92,28.67,158.83,58.59,-354,317,-3,0.81,-0.47,-0.16,0.32,41.92,2.78,-58.97,28.34,104.19,-1915.71,929.99,-50.84,46.10,169.14,-354,317,-3,0.80,-0.48,-0.14,0.32,41.05,4.85,-60.35,27.56,male1_walking0
34,4503505,161.07,-1879.76,683.17,38.89,69.03,48.56,-410,-118,-55,0.75,-0.53,-0.11,0.38,45.13,13.39,-64.25,28.34,-64.45,-1843.81,730.83,2.53,77.49,104.81,-410,-118,-55,0.72,-0.56,-0.09,0.41,46.94,19.37,-67.27,27.55,male1_walking0
35,4503561,117.74,-1940.98,959.11,39.51,69.90,19.78,-410,-118,-55,0.71,-0.56,-0.09,0.41,47.50,18.96,-67.65,28.34,-86.79,-1828.98,780.03,16.33,118.23,19.90,-410,-118,-55,0.70,-0.58,-0.09,0.41,46.42,20.52,-69.78,27.54,male1_walking0
36,4503617,352.97,-1795.84,1010.56,-17.41,123.77,-23.08,-410,-118,-55,0.71,-0.58,-0.11,0.39,44.97,16.77,-70.79,28.34,204.59,-1743.04,998.23,41.63,157.91,-47.55,-402,269,-111,0.77,-0.54,-0.11,0.32,38.52,10.11,-66.39,27.57,male1_walking0
37,4503674,632.14,-2000.00,724.61,26.09,146.71,-44.26,-402,269,-111,0.79,-0.54,-0.14,0.26,34.10,3.37,-67.29,28.33,463.75,-2000.00,185.42,34.16,75.91,-44.40,-402,269,-111,0.78,-0.56,-0.17,0.22,32.92,-0.67,-71.77,27.54,male1_walking0
38,4503730,727.78,-1822.75,880.31,11.44,-52.39,-64.64,-402,269,-111,0.79,-0.53,-0.22,0.21,34.89,-7.79,-70.48,28.34,-315.43,-1895.08,1179.69,25.77,15.88,-42.22,-388,-89,-344,0.76,-0.52,-0.20,0.33,45.83,2.33,-67.88,27.56,male1_walking0
39,4503786,451.23,-1888.61,1091.37,11.39,94.63,-40.92,-388,-89,-344,0.74,-0.51,-0.22,0.39,52.99,3.88,-67.15,28.34,-127.50,-2000.00,602.97,22.38,19.61,-33.82,-388,-89,-344,0.69,-0.52,-0.24,0.45,60.87,8.06,-69.09,27.56,male1_walking0
40,4503842,391.66,-1997.62,1007.69,16.09,-12.02,-44.65,-388,-89,-344,0.67,-0.49,-0.28,0.49,68.33,5.84,-67.91,28.33,-166.93,-1997.92,923.71,22.29,37.47,-26.40,-464,-63,-379,0.65,-0.48,-0.28,0.52,72.22,8.02,-67.08,27.55,male1_walking0
41,4503899,482.06,-2000.00,995.91,13.37,33.56,-47.24,-464,-63,-379,0.65,-0.45,-0.31,0.52,75.35,3.83,-66.34,28.33,-43.76,-1961.24,799.01,11.24,8.55,-28.00,-464,-63,-379,0.63,-0.45,-0.32,0.55,78.75,4.66,-66.61,27.55,male1_walking0
42,4503954,516.05,-1985.35,900.51,7.23,12.86,-51.73,-464,-63,-379,0.63,-0.42,-0.36,0.54,81.35,0.19,-66.42,28.35,-223.45,-1919.07,725.65,6.89,-2.72,-25.03,-464,-63,-379,0.61,-0.42,-0.35,0.57,84.41,2.92,-66.98,27.54,male1_walking0
43,4504009,344.42,-1957.64,950.13,8.68,24.20,-50.93,-344,317,-405,0.68,-0.41,-0.35,0.50,75.17,-3.43,-64.76,28.33,-195.13,-1921.45,744.45,4.93,41.39,-25.56,-344,317,-405,0.70,-0.43,-0.32,0.47,70.24,-2.23,-65.22,27.55,male1_walking0
44,4504066,471.74,-1962.83,942.69,6.01,62.59,-52.54,-344,317,-405,0.73,-0.42,-0.32,0.43,64.62,-6.44,-64.14,28.34,-180.73,-1948.12,756.65,4.44,44.09,-31.11,-344,317,-405,0.73,-0.45,-0.30,0.42,62.00,-3.84,-65.05,27.54,male1_walking0
45,4504122,484.13,-1992.49,987.06,-0.18,45.08,-46.22,-322,319,-420,0.75,-0.44,-0.31,0.39,59.25,-7.22,-64.35,28.34,-18.68,-1962.52,788.76,2.94,25.02,-39.82,-322,319,-420,0.75,-0.45,-0.30,0.39,58.48,-5.86,-65.15,27.56,male1_walking0
46,4504178,609.31,-1958.98,949.40,-6.10,7.98,-43.98,-322,319,-420,0.76,-0.43,-0.32,0.37,57.98,-9.71,-65.00,28.34,-64.58,-1919.37,770.81,0.34,6.33,-43.64,-322,319,-420,0.75,-0.45,-0.31,0.37,58.07,-7.50,-65.82,27.54,male1_walking0
47,4504234,486.08,-2000.00,935.55,-10.51,11.72,-41.89,-322,319,-420,0.76,-0.44,-0.32,0.36,57.74,-9.74,-65.83,28.34,-138.43,-1968.81,683.41,-1.63,13.42,-53.28,-253,334,-448,0.75,-0.46,-0.31,0.37,57.06,-7.15,-67.19,27.55,male1_walking0
48,4504290,380.49,-1973.21,945.25,-26.02,11.31,-31.04,-253,334,-448,0.75,-0.46,-0.32,0.36,56.52,-8.58,-67.08,28.34,-197.02,-2000.00,800.05,1.02,17.60,-69.02,-253,334,-448,0.75,-0.47,-0.30,0.36,55.78,-6.38,-67.23,27.54,male1_walking0
49,4504347,293.82,-2000.00,952.64,-27.63,-19.42,-9.94,-253,334,-448,0.75,-0.46,-0.31,0.36,56.67,-7.14,-67.35,28.32,-326.90,-2000.00,755.74,-2.22,-17.80,-102.85,-466,317,-448,0.74,-0.47,-0.30,0.38,57.97,-4.86,-68.28,27.54,male1_walking0
50,4504403,-57.19,-2000.00,860.17,-40.94,-32.97,-0.60,-466,317,-448,0.72,-0.48,-0.30,0.40,60.08,-2.93,-69.30,28.31,-410.95,-2000.00,488.04,-5.81,8.22,-125.27,-466,317,-448,0.71,-0.50,-0.30,0.39,59.37,-2.01,-71.37,27.54,male1_walking0
51,4504460,-88.20,-2000.00,1222.11,-30.30,21.23,7.41,-466,317,-448,0.72,-0.49,-0.28,0.41,59.43,-0.14,-68.66,28.32,-265.50,-2000.00,1051.39,-16.31,124.57,-95.41,-425,317,-442,0.74,-0.49,-0.25,0.39,55.51,0.76,-67.38,27.54,male1_walking0
52,4504516,616.46,-2000.00,1270.81,-42.98,152.68,49.00,-425,317,-442,0.75,-0.49,-0.25,0.37,53.44,-0.17,-66.18,28.29,618.84,-1822.63,1282.17,-5.65,159.10,-105.13,-425,317,-442,0.78,-0.46,-0.25,0.34,49.96,-4.75,-63.49,27.56,male1_walking0
53,4504572,865.97,-2000.00,1208.86,-56.06,126.95,74.81,-425,317,-442,0.77,-0.47,-0.26,0.34,50.93,-4.72,-64.23,28.33,210.45,-1654.91,1227.11,-67.82,131.51,-20.72,-425,317,-442,0.78,-0.47,-0.24,0.35,50.17,-3.15,-63.41,27.57,male1_walking0
54,4504629,945.01,-2000.00,1015.44,-27.50,106.04,105.66,-412,-58,-556,0.74,-0.45,-0.28,0.42,60.63,-2.31,-64.56,28.31,436.16,-1517.09,1268.37,-80.62,59.65,77.89,-412,-58,-556,0.71,-0.43,-0.30,0.47,68.09,-0.83,-63.23,27.55,male1_walking0
55,4504685,814.88,-1881.35,991.33,-6.90,59.26,115.18,-412,-58,-556,0.68,-0.41,-0.33,0.51,75.26,-1.41,-63.31,28.33,416.50,-1583.07,1075.26,-98.39,23.63,150.28,-412,-58,-556,0.64,-0.40,-0.34,0.55,81.42,0.54,-63.94,27.54,male1_walking0
56,4504741,801.70,-1812.68,803.22,2.95,54.35,109.23,-429,-65,-550,0.63,-0.38,-0.37,0.57,85.49,-1.53,-64.52,28.33,419.92,-1577.58,1019.04,-124.08,20.48,211.66,-429,-65,-550,0.59,-0.39,-0.38,0.60,89.60,1.28,-65.74,27.54,male1_walking0
57,4504845,726.44,-1692.57,905.15,16.06,37.57,53.73,-429,-65,-550,0.62,-0.30,-0.42,0.59,92.58,-9.75,-62.12,28.33,305.79,-1926.03,806.34,-108.16,-68.61,247.03,-470,-109,-556,0.55,-0.34,-0.44,0.62,99.45,-3.67,-66.91,27.55,male1_walking0
58,4504902,73.18,-1937.07,483.22,33.23,-14.56,48.19,-470,-109,-556,0.54,-0.35,-0.44,0.63,100.68,-2.12,-68.53,28.32,-416.32,-1857.91,631.77,-48.33,-66.48,154.78,-470,-109,-556,0.49,-0.38,-0.43,0.65,103.46,4.71,-70.61,27.55,male1_walking0
59,4504958,-756.16,-2000.00,700.20,17.87,-33.24,8.88,-470,-109,-556,0.48,-0.40,-0.41,0.66,102.95,8.42,-70.18,28.32,-597.60,-1736.33,755.31,24.47,38.42,-34.30,-334,-120,-792,0.49,-0.42,-0.38,0.66,100.26,10.38,-68.70,27.55,male1_walking0
60,4505015,89.72,-1838.13,1142.82,-6.39,4.34,-5.18,-334,-120,-792,0.52,-0.39,-0.38,0.66,99.83,6.74,-65.99,28.33,-196.78,-2000.00,709.96,41.21,68.30,-53.60,-334,-120,-792,0.54,-0.39,-0.38,0.64,96.90,5.78,-66.32,27.54,male1_walking0
61,4505071,-2.01,-2000.00,145.94,-14.19,73.30,-27.79,-334,-120,-792,0.53,-0.42,-0.41,0.61,94.51,4.19,-72.53,28.34,-22.34,-2000.00,537.66,51.46,58.98,-102.17,-288,-111,-852,0.56,-0.41,-0.42,0.59,92.69,0.94,-71.91,27.54,male1_walking0
62,4505127,989.32,-1718.57,933.84,0.92,22.63,-68.92,-288,-111,-852,0.60,-0.35,-0.45,0.56,92.51,-8.14,-69.53,28.31,158.63,-1670.17,1142.76,44.79,-7.39,-67.83,-288,-111,-852,0.61,-0.32,-0.43,0.58,92.71,-9.17,-64.31,27.54,male1_walking0
63,4505183,420.65,-2000.00,1032.65,11.66,-8.89,-55.90,-288,-111,-852,0.62,-0.30,-0.44,0.58,93.12,-11.33,-63.44,28.31,-260.31,-2000.00,874.27,21.39,18.01,-62.13,-288,-111,-852,0.61,-0.32,-0.42,0.59,92.73,-7.89,-63.47,27.56,male1_walking0
64,4505240,627.44,-1955.87,1086.55,13.03,29.47,-59.97,-463,-120,-877,0.63,-0.29,-0.43,0.58,92.29,-11.54,-62.09,28.32,187.68,-1988.16,861.76,15.43,31.09,-39.25,-463,-120,-877,0.62,-0.30,-0.43,0.58,92.51,-10.42,-62.62,27.54,male1_walking0
65,4505296,615.66,-1992.80,911.32,12.66,1.21,-74.33,-463,-120,-877,0.63,-0.28,-0.45,0.57,92.93,-13.83,-62.89,28.30,40.41,-1951.90,812.93,10.14,-1.42,-31.76,-463,-120,-877,0.61,-0.30,-0.44,0.58,93.98,-11.14,-63.80,27.54,male1_walking0
66,4505353,560.24,-1982.30,900.82,11.76,-8.36,-69.29,-456,-58,-873,0.63,-0.28,-0.45,0.57,93.29,-14.16,-63.83,28.34,-161.44,-1939.64,791.20,8.31,-19.14,-25.36,-456,-58,-873,0.61,-0.31,-0.44,0.58,93.79,-10.32,-64.71,27.55,male1_walking0
67,4505409,448.12,-1946.90,1020.69,23.48,-14.61,-72.69,-456,-58,-873,0.63,-0.29,-0.44,0.57,93.14,-12.81,-63.22,28.31,-217.83,-1944.95,816.47,2.36,-4.71,-25.30,-456,-58,-873,0.61,-0.32,-0.43,0.59,93.27,-8.54,-64.24,27.55,male1_walking0
68,4505465,335.69,-1983.46,959.78,12.63,17.55,-71.43,-456,-58,-880,0.62,-0.31,-0.43,0.57,91.96,-10.29,-63.61,28.34,-295.90,-2000.00,776.25,1.42,11.00,-37.16,-456,-58,-880,0.61,-0.34,-0.42,0.58,91.90,-6.46,-64.81,27.56,male1_walking0
69,4505522,327.94,-2000.00,952.88,4.04,-1.69,-58.25,-456,-58,-880,0.62,-0.33,-0.43,0.58,91.75,-8.58,-64.54,28.32,-387.33,-2000.00,602.48,6.16,-17.52,-60.43,-456,-58,-880,0.60,-0.35,-0.42,0.58,92.30,-5.28,-66.63,27.55,male1_walking0
70,4505579,190.31,-2000.00,813.78,-9.17,-26.90,-56.15,-456,-58,-880,0.60,-0.35,-0.43,0.58,92.87,-6.95,-67.26,28.34,-271.73,-2000.00,664.79,7.03,-4.23,-85.19,-419,-51,-853,0.59,-0.36,-0.43,0.58,92.41,-5.19,-68.22,27.55,male1_walking0
71,4505633,271.67,-2000.00,1118.71,-18.66,-25.39,-32.78,-419,-51,-853,0.60,-0.34,-0.43,0.58,92.87,-6.72,-66.73,28.32,-466.61,-2000.00,861.08,4.32,-8.88,-113.91,-419,-51,-853,0.60,-0.36,-0.42,0.58,92.08,-4.65,-66.51,27.54,male1_walking0
72,4505690,-186.65,-2000.00,1073.61,-28.89,-28.27,2.27,-419,-51,-853,0.58,-0.36,-0.41,0.60,93.19,-2.11,-66.01,28.31,-674.50,-2000.00,467.96,1.80,41.88,-149.54,-305,-60,-835,0.58,-0.40,-0.40,0.59,90.65,0.04,-68.81,27.55,male1_walking0
73,4505747,177.61,-2000.00,745.48,-43.61,24.56,14.26,-305,-60,-835,0.58,-0.40,-0.41,0.58,91.10,-0.67,-70.18,28.32,-107.12,-2000.00,996.46,30.88,57.73,-125.47,-305,-60,-835,0.60,-0.38,-0.40,0.57,89.09,-2.51,-67.30,27.56,male1_walking0
74,4505803,831.48,-2000.00,1032.53,-46.55,97.14,51.38,-305,-60,-835,0.61,-0.37,-0.41,0.56,88.41,-5.16,-67.31,28.33,859.74,-1697.39,1281.49,36.49,96.40,-101.01,-212,-31,-853,0.67,-0.32,-0.41,0.54,84.80,-11.77,-61.93,27.54,male1_walking0
75,4505860,1132.08,-2000.00,960.82,-39.85,35.51,91.25,-212,-31,-853,0.66,-0.31,-0.43,0.53,86.44,-13.51,-63.68,28.34,407.04,-1467.04,1045.59,-16.71,97.02,17.92,-212,-31,-853,0.67,-0.32,-0.41,0.54,84.45,-11.87,-61.16,27.54,male1_walking0
76,4505915,1138.31,-1909.24,672.06,-9.31,33.57,117.85,-212,-31,-853,0.65,-0.31,-0.44,0.53,87.10,-13.72,-64.04,28.32,591.25,-1271.36,1032.53,-17.51,-10.70,115.97,-212,-31,-853,0.65,-0.30,-0.42,0.55,88.56,-12.93,-61.50,27.54,male1_walking0
77,4505987,902.83,-1720.64,762.70,31.59,-65.74,123.02,-185,-24,-880,0.63,-0.27,-0.46,0.57,94.31,-15.01,-63.27,28.34,395.45,-1460.02,843.75,-19.45,-84.21,232.31,-185,-24,-880,0.60,-0.30,-0.44,0.60,97.04,-10.02,-64.03,27.56,male1_walking0
78,4506043,695.56,-1598.14,904.17,42.24,-60.39,114.37,-185,-24,-880,0.60,-0.28,-0.44,0.61,97.83,-10.39,-62.32,28.32,198.79,-1648.62,953.80,-61.84,-43.99,249.99,-185,-24,-880,0.56,-0.33,-0.42,0.64,99.58,-2.93,-64.15,27.55,male1_walking0
79,4506099,522.40,-1582.28,1091.06,43.50,-29.88,73.70,-361,331,-833,0.61,-0.32,-0.39,0.61,92.72,-4.57,-60.24,28.32,335.63,-1941.96,845.95,-91.61,-88.91,249.99,-361,331,-833,0.59,-0.37,-0.39,0.60,92.15,-0.82,-64.85,27.56,male1_walking0
80,4506156,314.58,-1960.39,921.33,50.91,-33.81,49.49,-361,331,-833,0.62,-0.37,-0.37,0.58,87.41,-1.86,-63.33,28.32,-251.34,-2000.00,504.27,-81.83,-139.24,228.66,-361,331,-833,0.57,-0.43,-0.37,0.59,88.70,4.43,-69.17,27.54,male1_walking0
81,4506212,-1067.57,-2000.00,518.01,12.99,-38.93,8.09,-212,348,-769,0.57,-0.49,-0.32,0.58,83.35,11.51,-70.89,28.30,-1240.84,-1719.18,134.64,-7.20,57.28,-5.59,-212,348,-769,0.55,-0.55,-0.27,0.56,76.65,18.52,-75.33,27.57,male1_walking0
82,4506270,-396.00,-1852.91,884.34,-38.91,20.89,1.98,-212,348,-769,0.58,-0.54,-0.26,0.55,74.37,16.92,-73.43,28.34,-185.18,-2000.00,1058.23,59.99,129.94,-105.14,-212,348,-769,0.64,-0.52,-0.25,0.51,68.88,12.27,-69.68,27.55,male1_walking0
83,4506326,771.18,-2000.00,622.25,-28.08,101.36,-46.97,-468,374,-814,0.68,-0.51,-0.30,0.44,64.50,2.27,-71.95,28.31,158.51,-2000.00,281.92,32.41,27.25,-80.58,-468,374,-814,0.68,-0.51,-0.32,0.42,63.92,-1.12,-73.79,27.58,male1_walking0
84,4506382,664.73,-2000.00,951.90,25.18,-139.90,-72.25,-468,374,-814,0.70,-0.45,-0.38,0.42,68.18,-8.74,-71.00,28.31,138.43,-1548.28,1311.22,36.82,19.00,-87.93,-468,374,-814,0.73,-0.40,-0.35,0.42,66.42,-9.58,-63.99,27.54,male1_walking0
85,4506439,804.08,-1843.69,1237.43,7.86,34.45,-63.05,-468,374,-814,0.75,-0.37,-0.36,0.41,64.99,-13.78,-61.25,28.33,-138.43,-2000.00,874.27,21.62,-11.02,-60.71,-466,369,-880,0.74,-0.39,-0.35,0.43,66.20,-10.54,-62.00,27.56,male1_walking0
86,4506494,366.33,-1912.17,914.37,21.16,5.26,-68.47,-466,369,-880,0.74,-0.38,-0.35,0.42,66.39,-11.90,-61.93,28.34,57.86,-2000.00,893.55,20.81,21.32,-41.34,-466,369,-880,0.74,-0.39,-0.34,0.43,66.59,-9.73,-62.28,27.55,male1_walking0
87,4506551,583.07,-2000.00,1073.55,11.56,-38.89,-62.54,-466,369,-880,0.74,-0.37,-0.37,0.42,67.75,-13.14,-61.90,28.31,-53.53,-1956.42,902.71,13.39,-36.01,-39.19,-393,435,-872,0.73,-0.39,-0.35,0.43,67.70,-10.55,-62.57,27.56,male1_walking0
88,4506608,504.52,-1983.95,949.34,13.95,-34.71,-66.38,-393,435,-872,0.74,-0.38,-0.37,0.42,67.21,-13.28,-62.68,28.33,-195.01,-1971.37,862.06,13.05,-42.37,-32.99,-393,435,-872,0.73,-0.40,-0.35,0.43,67.62,-9.63,-63.50,27.55,male1_walking0
89,4506664,346.31,-1940.67,1079.47,21.17,-36.87,-68.16,-393,435,-872,0.74,-0.38,-0.36,0.43,66.99,-11.65,-62.15,28.35,-248.84,-1953.92,897.28,7.23,-14.46,-28.57,-354,427,-826,0.73,-0.41,-0.33,0.44,66.37,-7.31,-62.92,27.56,male1_walking0
90,4506721,375.18,-1979.74,1010.99,20.24,6.94,-72.44,-354,427,-826,0.74,-0.40,-0.34,0.42,64.73,-9.63,-62.20,28.31,-271.55,-1942.69,780.40,6.50,0.13,-33.94,-354,427,-826,0.73,-0.42,-0.32,0.43,64.44,-6.09,-63.52,27.54,male1_walking0
91,4506777,322.63,-1972.90,974.37,11.70,-0.10,-66.25,-354,427,-826,0.74,-0.41,-0.33,0.41,63.60,-8.48,-63.13,28.33,-227.05,-1987.98,805.48,12.62,-7.65,-52.06,-354,427,-826,0.73,-0.43,-0.31,0.42,63.57,-5.81,-64.09,27.55,male1_walking0
92,4506833,444.09,-2000.00,949.58,4.62,-34.90,-56.28,-297,317,-813,0.73,-0.41,-0.34,0.42,65.52,-9.44,-64.14,28.34,-313.60,-1999.82,712.40,12.89,-40.36,-70.06,-297,317,-813,0.72,-0.42,-0.34,0.43,66.87,-7.04,-65.41,27.57,male1_walking0
93,4506888,257.14,-2000.00,947.33,-2.72,-47.57,-53.08,-297,317,-813,0.72,-0.41,-0.36,0.43,68.29,-8.95,-65.36,28.29,-299.44,-2000.00,837.40,13.90,-11.86,-93.53,-297,317,-813,0.72,-0.42,-0.34,0.44,67.95,-6.90,-65.39,27.54,male1_walking0
94,4506946,276.49,-2000.00,1163.88,-17.55,-24.47,-36.49,-449,430,-550,0.73,-0.41,-0.34,0.42,65.56,-8.77,-63.91,28.31,-479.49,-2000.00,789.73,8.74,-8.94,-116.94,-449,430,-550,0.74,-0.43,-0.32,0.42,63.23,-6.51,-64.55,27.56,male1_walking0
95,4507002,-146.18,-2000.00,883.61,-25.03,-33.88,6.30,-449,430,-550,0.73,-0.45,-0.31,0.42,63.22,-4.04,-65.73,28.33,-328.19,-2000.00,93.26,20.99,26.68,-149.78,-449,430,-550,0.72,-0.48,-0.32,0.39,60.21,-4.34,-70.50,27.54,male1_walking0
96,4507058,253.72,-2000.00,768.49,-33.16,-20.66,20.50,-466,393,-553,0.71,-0.48,-0.32,0.39,61.26,-4.58,-71.14,28.34,0.24,-2000.00,1012.88,67.18,23.51,-124.41,-466,393,-553,0.74,-0.46,-0.31,0.38,59.32,-6.32,-66.91,27.57,male1_walking0
97,4507114,782.78,-2000.00,973.21,-38.80,65.77,63.63,-466,393,-553,0.74,-0.46,-0.32,0.38,58.98,-7.42,-67.26,28.33,544.68,-1758.36,1026.25,43.41,39.68,-79.85,-466,393,-553,0.76,-0.42,-0.32,0.36,57.63,-10.81,-63.96,27.57,male1_walking0
98,4507171,1003.85,-1970.46,906.56,-38.98,-5.91,101.08,-466,393,-553,0.75,-0.42,-0.35,0.37,60.69,-11.76,-65.92,28.32,378.85,-1468.99,1040.65,-8.83,35.67,51.90,-434,333,-524,0.75,-0.41,-0.33,0.39,61.30,-9.61,-63.07,27.55,male1_walking0
99,4507227,959.17,-1859.19,808.35,1.30,-8.61,121.12,-434,333,-524,0.74,-0.41,-0.35,0.41,64.37,-10.70,-64.36,28.31,484.13,-1410.64,996.40,-30.74,-16.91,148.78,-434,333,-524,0.73,-0.40,-0.34,0.43,66.52,-8.55,-63.09,27.55,male1_walking0
100,4507283,900.70,-1756.23,876.28,21.25,-31.22,129.58,-434,333,-524,0.73,-0.39,-0.36,0.44,68.77,-10.29,-62.95,28.34,396.73,-1508.67,961.55,-59.74,-55.52,228.94,-211,340,-811,0.70,-0.40,-0.34,0.48,71.97,-5.86,-63.81,27.57,male1_walking0
101,4507340,762.45,-1577.21,984.68,27.82,-33.76,112.25,-211,340,-811,0.71,-0.38,-0.35,0.48,72.64,-7.89,-61.79,28.33,337.34,-1603.39,1022.09,-92.75,-56.90,249.99,-211,340,-811,0.68,-0.41,-0.34,0.51,75.17,-3.06,-63.76,27.56,male1_walking0
102,4507396,603.21,-1551.09,1037.78,19.94,-17.15,68.52,-211,340,-811,0.70,-0.38,-0.34,0.50,74.06,-5.47,-61.21,28.31,135.07,-2000.00,841.43,-108.16,-77.86,249.99,-211,340,-811,0.66,-0.43,-0.34,0.52,76.98,0.22,-66.16,27.56,male1_walking0
103,4507453,99.37,-2000.00,527.65,20.54,46.55,69.47,-307,317,-550,0.66,-0.46,-0.32,0.49,72.44,1.45,-68.18,28.31,-307.80,-1852.60,532.29,-68.92,-31.54,191.14,-307,317,-550,0.63,-0.50,-0.30,0.51,72.42,7.05,-71.17,27.55,male1_walking0
104,4507508,-1039.67,-2000.00,687.99,-9.51,14.81,10.72,-307,317,-550,0.63,-0.53,-0.25,0.51,69.13,12.68,-71.51,28.31,-458.37,-1592.83,843.38,28.11,97.77,-59.28,-307,317,-550,0.68,-0.52,-0.21,0.48,62.41,12.50,-67.36,27.54,male1_walking0
105,4507577,311.65,-1775.94,1253.23,-13.99,6.09,1.30,-464,459,-764,0.71,-0.48,-0.23,0.46,62.66,6.54,-64.14,28.34,-190.12,-2000.00,631.10,39.61,46.08,-34.32,-464,459,-764,0.71,-0.49,-0.24,0.45,60.85,5.88,-65.48,27.56,male1_walking0
106,4507633,-117.92,-2000.00,-219.30,-17.70,85.88,-9.31,-464,459,-764,0.68,-0.55,-0.26,0.41,58.26,5.85,-74.29,28.32,201.78,-2000.00,668.70,60.67,13.23,-117.45,-464,459,-764,0.71,-0.51,-0.28,0.39,57.61,-0.35,-72.02,27.55,male1_walking0
107,4507689,1205.02,-1626.28,1197.57,4.55,-31.36,-64.90,-434,456,-825,0.75,-0.44,-0.34,0.36,59.17,-11.53,-67.53,28.33,117.92,-1848.75,1141.66,45.72,-26.46,-67.99,-434,456,-825,0.76,-0.41,-0.33,0.38,60.29,-11.08,-63.88,27.55,male1_walking0
108,4507746,320.56,-2000.00,1124.69,18.18,-0.19,-68.21,-434,456,-825,0.76,-0.40,-0.33,0.38,60.51,-11.81,-62.36,28.33,-117.25,-1906.56,848.51,20.97,32.28,-57.59,-434,456,-825,0.76,-0.42,-0.31,0.39,60.29,-8.59,-62.55,27.56,male1_walking0
109,4507802,669.25,-2000.00,974.67,17.47,-10.05,-67.20,-434,456,-825,0.76,-0.40,-0.34,0.38,60.90,-12.84,-62.43,28.32,75.87,-1994.75,877.81,17.17,-10.73,-41.91,-334,321,-880,0.75,-0.40,-0.34,0.40,63.47,-11.06,-62.90,27.55,male1_walking0
110,4507859,541.69,-1978.27,953.19,16.75,-31.97,-76.24,-334,321,-880,0.75,-0.38,-0.37,0.40,65.30,-14.18,-62.80,28.32,-87.71,-1957.76,883.73,14.80,-38.26,-36.75,-334,321,-880,0.73,-0.39,-0.36,0.43,67.31,-11.14,-63.27,27.54,male1_walking0
111,4507915,443.12,-1978.52,946.23,20.60,-34.19,-69.02,-334,321,-880,0.74,-0.37,-0.37,0.42,68.31,-13.51,-63.02,28.34,-178.10,-1949.16,830.93,14.48,-34.44,-34.19,-199,328,-867,0.72,-0.40,-0.36,0.44,68.62,-9.68,-63.86,27.56,male1_walking0
112,4507971,374.69,-1937.01,1052.25,26.50,-42.65,-69.80,-199,328,-867,0.73,-0.38,-0.36,0.43,68.46,-11.95,-62.49,28.32,-195.43,-1957.40,868.77,9.03,-4.68,-34.45,-199,328,-867,0.73,-0.40,-0.34,0.44,67.96,-8.25,-63.21,27.54,male1_walking0
113,4508028,390.93,-1957.76,1064.39,13.18,1.78,-79.99,-199,328,-867,0.74,-0.39,-0.35,0.43,66.70,-10.79,-62.14,28.32,-188.90,-1977.78,812.38,7.45,4.73,-46.78,-470,317,-850,0.72,-0.41,-0.34,0.44,67.84,-7.36,-63.40,27.55,male1_walking0
114,4508084,433.78,-2000.00,970.52,2.30,-9.86,-60.84,-470,317,-850,0.73,-0.39,-0.36,0.44,68.61,-9.84,-63.51,28.31,-303.04,-2000.00,691.53,9.83,-28.03,-67.02,-470,317,-850,0.71,-0.41,-0.35,0.45,69.88,-6.89,-65.27,27.57,male1_walking0
115,4508140,197.51,-2000.00,817.81,-1.61,-42.75,-66.19,-470,317,-850,0.70,-0.41,-0.37,0.45,71.10,-8.59,-66.13,28.31,-387.02,-2000.00,667.05,11.74,-11.02,-93.06,-470,317,-850,0.69,-0.43,-0.36,0.46,71.01,-5.94,-67.18,27.55,male1_walking0
116,4508196,186.95,-2000.00,1066.53,-21.19,-22.38,-34.91,-409,345,-816,0.70,-0.42,-0.36,0.46,70.72,-6.85,-66.23,28.31,-487.55,-2000.00,843.26,11.06,-6.21,-124.14,-409,345,-816,0.70,-0.43,-0.34,0.46,69.37,-4.90,-66.05,27.56,male1_walking0
117,4508252,-147.22,-2000.00,919.62,-26.98,-22.57,12.73,-409,345,-816,0.69,-0.44,-0.33,0.47,70.15,-2.39,-66.65,28.30,-383.12,-2000.00,100.83,14.96,25.31,-152.34,-409,345,-816,0.68,-0.47,-0.34,0.44,67.98,-2.53,-71.48,27.54,male1_walking0
118,4508318,472.90,-1968.51,874.88,-32.95,3.59,22.14,-324,352,-553,0.70,-0.46,-0.35,0.41,65.44,-5.97,-70.41,28.31,265.08,-2000.00,1155.03,61.50,70.62,-124.11,-324,352,-553,0.75,-0.43,-0.33,0.39,60.95,-8.81,-65.18,27.56,male1_walking0
119,4508374,1106.08,-2000.00,931.46,-48.87,77.96,70.42,-324,352,-553,0.75,-0.43,-0.34,0.37,60.16,-10.95,-66.34,28.33,556.64,-1628.97,962.89,23.92,41.32,-58.06,-324,352,-553,0.77,-0.41,-0.34,0.36,58.68,-13.38,-63.48,27.56,male1_walking0
120,4508431,1050.35,-1941.47,868.59,-39.50,-9.69,105.49,-243,375,-863,0.75,-0.40,-0.37,0.37,62.70,-14.59,-65.72,28.32,414.00,-1383.67,1116.15,-23.21,14.18,85.01,-243,375,-863,0.75,-0.39,-0.35,0.40,63.27,-12.24,-62.72,27.57,male1_walking0
121,4508487,938.96,-1813.42,909.73,2.97,-11.51,124.95,-243,375,-863,0.74,-0.39,-0.36,0.41,65.94,-12.83,-63.22,28.31,369.38,-1419.98,1081.97,-52.77,-10.39,165.92,-243,375,-863,0.73,-0.39,-0.34,0.44,67.52,-8.72,-62.29,27.55,male1_walking0
122,4508544,818.60,-1699.28,1039.61,21.51,-6.93,131.14,-361,324,-934,0.73,-0.37,-0.35,0.46,70.65,-9.50,-60.85,28.31,358.15,-1553.71,1092.04,-91.16,-22.19,237.12,-361,324,-934,0.70,-0.39,-0.34,0.50,73.85,-4.81,-62.12,27.56,male1_walking0
123,4508599,731.81,-1588.44,1036.68,21.68,2.10,103.77,-361,324,-934,0.71,-0.37,-0.34,0.50,74.44,-6.79,-60.19,28.32,259.58,-1645.81,1038.82,-117.76,-37.09,249.99,-361,324,-934,0.67,-0.40,-0.34,0.53,77.48,-1.65,-63.06,27.57,male1_walking0
124,4508657,615.66,-1729.37,874.82,20.06,30.98,77.98,-361,324,-934,0.68,-0.39,-0.34,0.51,76.08,-3.71,-62.52,28.33,182.98,-1972.41,651.73,-94.28,-73.30,249.99,-348,317,-961,0.63,-0.43,-0.35,0.54,79.92,1.26,-67.83,27.55,male1_walking0
125,4508712,13.79,-1757.39,396.30,43.87,34.27,65.91,-348,317,-961,0.63,-0.46,-0.34,0.53,77.80,2.85,-69.24,28.31,-742.31,-1915.53,749.21,-40.82,-96.58,162.21,-348,317,-961,0.59,-0.48,-0.31,0.56,80.26,10.38,-69.94,27.57,male1_walking0
126,4508769,-863.83,-2000.00,494.75,7.01,-37.96,24.06,-348,317,-961,0.58,-0.51,-0.29,0.57,79.13,14.35,-71.30,28.33,-614.99,-1734.44,716.25,36.96,61.86,-47.84,-468,-49,-865,0.57,-0.50,-0.28,0.58,80.39,15.28,-69.75,27.53,male1_walking0
127,4508824,239.07,-1799.80,1139.16,-4.90,-4.15,-1.32,-468,-49,-865,0.59,-0.45,-0.31,0.59,84.04,9.63,-66.72,28.31,59.94,-2000.00,953.98,50.94,102.20,-77.90,-468,-49,-865,0.61,-0.43,-0.32,0.58,82.84,6.01,-65.32,27.56,male1_walking0
128,4508880,403.14,-2000.00,669.13,-3.22,66.25,-47.33,-468,-49,-865,0.62,-0.42,-0.36,0.55,83.23,0.88,-67.51,28.29,127.44,-2000.00,443.24,38.95,98.18,-85.54,-429,-72,-981,0.62,-0.42,-0.38,0.54,82.78,-1.37,-69.18,27.55,male1_walking0
129,4508937,948.49,-1909.85,927.55,5.48,27.84,-83.10,-429,-72,-981,0.65,-0.37,-0.42,0.52,84.26,-9.80,-67.84,28.31,351.50,-1538.02,1400.57,48.97,1.33,-78.37,-429,-72,-981,0.67,-0.31,-0.41,0.54,85.11,-11.99,-61.01,27.56,male1_walking0
130,4508992,504.15,-2000.00,1222.53,18.22,-30.30,-69.26,-429,-72,-981,0.67,-0.28,-0.42,0.55,86.91,-14.42,-59.78,28.32,-363.40,-2000.00,923.22,20.63,-5.86,-62.45,-429,-72,-981,0.65,-0.31,-0.40,0.56,87.91,-9.93,-60.52,27.57,male1_walking0
131,4509049,628.17,-1963.01,920.53,28.92,-1.29,-67.34,-249,-51,-934,0.66,-0.29,-0.42,0.55,87.95,-13.92,-60.79,28.33,154.30,-2000.00,925.23,21.27,8.58,-40.97,-249,-51,-934,0.65,-0.30,-0.42,0.55,87.93,-12.28,-61.24,27.53,male1_walking0
132,4509106,562.99,-1989.07,1061.71,15.37,-24.84,-74.52,-249,-51,-934,0.66,-0.28,-0.43,0.55,88.17,-15.11,-60.92,28.31,-58.53,-1951.05,849.79,14.79,-25.21,-37.90,-249,-51,-934,0.65,-0.30,-0.42,0.56,88.95,-12.03,-62.07,27.55,male1_walking0
133,4509164,507.75,-1996.52,924.32,15.13,-19.56,-71.63,-222,-65,-954,0.65,-0.29,-0.44,0.55,89.21,-14.80,-62.47,28.31,-207.28,-1949.52,821.66,14.18,-34.61,-31.14,-222,-65,-954,0.63,-0.31,-0.43,0.56,90.12,-10.98,-63.41,27.56,male1_walking0
134,4509219,347.66,-1934.27,990.05,30.78,-28.47,-70.62,-222,-65,-954,0.64,-0.30,-0.43,0.56,90.26,-12.82,-62.29,28.34,-226.56,-1962.34,854.00,12.39,-5.16,-31.34,-222,-65,-954,0.63,-0.32,-0.41,0.57,90.32,-8.67,-63.07,27.55,male1_walking0
135,4509274,341.49,-1968.08,1069.34,25.76,8.30,-80.16,-466,-20,-988,0.64,-0.31,-0.41,0.56,89.12,-10.66,-61.64,28.34,-221.74,-1935.97,795.84,12.44,10.13,-43.90,-466,-20,-988,0.63,-0.33,-0.40,0.57,88.99,-7.34,-62.76,27.56,male1_walking0
136,4509331,517.88,-2000.00,1004.58,11.56,-1.43,-60.70,-466,-20,-988,0.64,-0.31,-0.42,0.56,88.81,-10.66,-62.49,28.29,-185.55,-2000.00,785.89,16.08,-26.47,-60.01,-466,-20,-988,0.63,-0.33,-0.41,0.57,89.56,-8.16,-63.76,27.55,male1_walking0
137,4509387,240.17,-1967.10,890.01,5.43,-53.21,-58.24,-466,-20,-988,0.63,-0.32,-0.43,0.57,90.69,-9.75,-64.24,28.30,-404.97,-1935.61,668.15,18.87,-34.10,-78.41,-436,-3,-968,0.61,-0.35,-0.42,0.57,90.71,-6.47,-65.56,27.55,male1_walking0
138,4509474,222.23,-2000.00,1075.01,-13.34,-35.39,-22.80,-436,-3,-968,0.62,-0.33,-0.42,0.58,91.58,-8.03,-64.29,28.33,-459.66,-2000.00,739.38,20.81,-29.11,-127.48,-436,-3,-968,0.61,-0.35,-0.41,0.58,90.55,-6.06,-65.12,27.55,male1_walking0
139,4509530,-318.05,-2000.00,952.94,-23.77,-62.54,8.50,-359,319,-986,0.62,-0.38,-0.39,0.57,87.13,-2.15,-65.99,28.30,-442.44,-2000.00,33.51,21.45,24.24,-157.91,-359,319,-986,0.62,-0.43,-0.39,0.52,81.42,-1.93,-71.12,27.56,male1_walking0
140,4509585,249.69,-2000.00,916.50,-35.91,12.34,26.21,-359,319,-986,0.64,-0.43,-0.38,0.51,78.85,-2.47,-70.45,28.28,81.24,-2000.00,1153.87,57.14,40.90,-119.70,-359,319,-986,0.68,-0.41,-0.36,0.49,74.97,-4.97,-65.85,27.57,male1_walking0
141,4509642,838.93,-2000.00,1062.74,-54.89,78.93,74.90,-239,16,-961,0.67,-0.39,-0.38,0.50,77.50,-7.18,-66.25,28.30,933.35,-1637.57,1158.87,27.75,62.51,-82.58,-239,16,-961,0.70,-0.34,-0.40,0.48,77.14,-13.86,-62.32,27.56,male1_walking0
142,4509699,1296.08,-2000.00,706.54,-50.34,-4.10,95.70,-239,16,-961,0.68,-0.33,-0.44,0.48,81.36,-16.74,-65.98,28.31,333.92,-1361.33,977.29,-10.15,-26.58,70.56,-239,16,-961,0.67,-0.32,-0.42,0.51,83.34,-14.05,-63.34,27.57,male1_walking0
143,4509755,927.19,-1735.66,843.93,-9.95,-34.28,118.85,-239,16,-961,0.66,-0.31,-0.44,0.52,86.65,-14.87,-64.42,28.31,433.53,-1318.42,1028.63,-43.54,-22.66,149.64,-224,-5,-956,0.65,-0.31,-0.42,0.55,88.43,-11.39,-62.79,27.56,male1_walking0
144,4509812,961.55,-1608.03,907.04,21.16,-24.09,130.01,-224,-5,-956,0.64,-0.29,-0.43,0.56,90.43,-12.88,-62.11,28.33,391.72,-1367.74,1062.87,-72.36,-46.69,244.19,-224,-5,-956,0.61,-0.31,-0.41,0.60,93.19,-7.48,-62.28,27.56,male1_walking0
145,4509868,729.68,-1549.62,1066.96,29.01,-39.27,108.02,-224,-5,-956,0.62,-0.29,-0.41,0.61,94.16,-8.91,-59.90,28.32,235.17,-1587.22,1064.21,-101.70,-62.84,249.99,-381,317,-870,0.60,-0.34,-0.39,0.61,92.62,-2.86,-62.70,27.57,male1_walking0
146,4509924,512.39,-1597.66,1061.77,24.47,-19.60,80.70,-381,317,-870,0.63,-0.34,-0.37,0.59,88.11,-4.16,-60.26,28.31,-43.70,-2000.00,761.17,-96.03,-95.91,249.99,-381,317,-870,0.60,-0.39,-0.37,0.59,89.07,1.66,-65.39,27.57,male1_walking0
147,4509981,150.02,-1811.10,320.07,32.71,13.42,84.43,-381,317,-870,0.60,-0.43,-0.37,0.56,84.57,2.27,-68.67,28.31,-609.19,-1784.24,684.33,-46.40,-101.62,177.87,-461,319,-825,0.57,-0.47,-0.33,0.59,85.18,9.71,-69.89,27.56,male1_walking0
148,4510036,-1044.56,-2000.00,748.90,6.52,-51.92,6.37,-461,319,-825,0.57,-0.49,-0.30,0.59,82.60,13.45,-69.36,28.32,-778.26,-1697.14,666.20,22.24,98.77,-35.54,-461,319,-825,0.59,-0.51,-0.25,0.56,76.04,16.09,-69.22,27.57,male1_walking0
149,4510093,30.40,-1784.55,1211.61,-22.26,52.99,0.99,-461,319,-825,0.63,-0.49,-0.26,0.54,73.73,11.80,-66.15,28.30,84.59,-2000.00,1124.39,50.05,160.70,-73.79,-461,319,-825,0.68,-0.47,-0.25,0.50,68.17,8.06,-64.05,27.55,male1_walking0
150,4510149,442.57,-2000.00,580.93,9.03,109.70,-46.71,-432,-48,-846,0.67,-0.46,-0.31,0.50,71.56,2.60,-67.33,28.31,511.29,-2000.00,12.27,44.66,94.68,-78.04,-432,-48,-846,0.65,-0.46,-0.36,0.48,73.89,-2.13,-71.92,27.55,male1_walking0
151,4510205,977.48,-1980.65,952.45,30.19,-57.27,-69.66,-432,-48,-846,0.66,-0.39,-0.42,0.49,79.71,-9.60,-69.74,28.30,163.02,-1504.64,1555.30,50.94,-13.97,-82.29,-432,-48,-846,0.68,-0.33,-0.39,0.53,82.08,-10.55,-61.21,27.55,male1_walking0
152,4510262,419.01,-2000.00,1426.76,13.12,22.87,-58.15,-361,-58,-975,0.68,-0.30,-0.39,0.54,83.08,-12.04,-58.43,28.31,-233.15,-2000.00,925.42,27.98,29.27,-59.82,-361,-58,-975,0.67,-0.32,-0.38,0.55,83.89,-8.77,-59.14,27.58,male1_walking0
153,4510318,734.07,-1999.82,791.93,27.04,21.54,-63.87,-361,-58,-975,0.67,-0.30,-0.41,0.53,85.05,-13.35,-60.72,28.31,221.44,-2000.00,919.31,23.48,-9.26,-41.05,-361,-58,-975,0.66,-0.30,-0.42,0.54,86.63,-12.67,-61.25,27.55,male1_walking0
154,4510374,520.08,-1994.20,1021.85,19.17,-52.35,-75.92,-233,-34,-981,0.66,-0.28,-0.43,0.54,87.62,-15.75,-61.25,28.31,-46.94,-1939.88,829.47,13.40,-34.63,-35.57,-233,-34,-981,0.65,-0.30,-0.43,0.55,88.40,-12.68,-62.49,27.57,male1_walking0
155,4510431,451.60,-1984.37,892.09,21.67,-34.27,-75.39,-233,-34,-981,0.65,-0.29,-0.44,0.54,88.64,-14.81,-62.80,28.32,-296.08,-1939.45,836.18,16.59,-38.18,-31.55,-233,-34,-981,0.64,-0.32,-0.42,0.56,89.38,-9.94,-63.59,27.56,male1_walking0
156,4510487,311.65,-1924.56,1070.50,32.62,-31.84,-75.13,-233,-34,-981,0.65,-0.30,-0.42,0.56,89.21,-11.85,-61.79,28.29,-202.94,-1961.49,839.23,15.43,6.28,-32.94,-195,324,-873,0.66,-0.36,-0.38,0.54,83.06,-6.76,-63.11,27.56,male1_walking0
157,4510543,338.93,-1968.87,1019.90,22.94,14.63,-86.15,-195,324,-873,0.69,-0.36,-0.37,0.50,77.48,-8.47,-62.22,28.29,-248.17,-1911.80,833.31,16.17,9.05,-47.15,-195,324,-873,0.69,-0.39,-0.34,0.50,74.33,-4.94,-63.05,27.57,male1_walking0
158,4510600,541.44,-2000.00,1025.02,15.27,-13.92,-65.54,-195,324,-873,0.71,-0.38,-0.36,0.47,72.17,-9.03,-62.56,28.31,-189.09,-2000.00,749.88,19.81,-41.22,-63.85,-466,317,-954,0.70,-0.39,-0.36,0.48,73.04,-7.23,-63.98,27.58,male1_walking0
159,4510656,211.18,-2000.00,892.76,10.03,-60.81,-60.39,-466,317,-954,0.70,-0.38,-0.37,0.47,74.06,-8.95,-64.36,28.30,-360.41,-1985.17,701.05,21.59,-23.15,-85.40,-466,317,-954,0.69,-0.40,-0.36,0.48,73.77,-6.28,-65.42,27.57,male1_walking0
160,4510713,320.43,-2000.00,1022.77,-11.21,-30.13,-40.61,-466,317,-954,0.70,-0.39,-0.37,0.47,74.00,-8.28,-65.06,28.28,-377.44,-2000.00,853.64,22.92,-19.33,-113.36,-405,317,-843,0.70,-0.40,-0.35,0.47,72.57,-6.40,-64.81,27.54,male1_walking0
161,4510769,-119.26,-2000.00,1032.65,-12.88,-45.28,-14.43,-405,317,-843,0.69,-0.41,-0.35,0.48,73.22,-4.67,-64.67,28.31,-742.80,-2000.00,516.30,16.29,-12.24,-154.04,-405,317,-843,0.68,-0.44,-0.33,0.48,71.45,-2.26,-66.90,27.56,male1_walking0
162,4510826,-177.67,-2000.00,186.89,-51.66,-3.59,24.63,-405,317,-843,0.65,-0.49,-0.35,0.47,71.93,0.36,-73.48,28.31,-253.17,-2000.00,915.83,44.60,17.17,-135.29,-405,317,-843,0.67,-0.46,-0.34,0.46,70.19,-1.36,-70.04,27.57,male1_walking0
163,4510882,591.92,-2000.00,1044.01,-51.96,79.05,65.10,-293,-7,-880,0.66,-0.44,-0.36,0.49,74.63,-2.86,-69.36,28.31,1033.69,-2000.00,1315.06,43.93,111.70,-118.61,-293,-7,-880,0.70,-0.38,-0.38,0.47,74.42,-10.00,-65.20,27.57,male1_walking0
164,4510938,1407.10,-2000.00,843.44,-63.27,21.26,93.11,-293,-7,-880,0.68,-0.36,-0.43,0.47,79.70,-14.26,-67.79,28.29,389.40,-1435.36,953.31,-5.30,-18.26,30.97,-293,-7,-880,0.67,-0.34,-0.43,0.50,82.32,-13.59,-65.13,27.56,male1_walking0
165,4510994,983.89,-1827.15,848.69,-20.28,-35.40,116.42,-251,-118,-852,0.64,-0.31,-0.46,0.53,88.96,-15.17,-66.36,28.30,398.38,-1417.91,1097.72,-37.57,-25.18,134.56,-251,-118,-852,0.63,-0.31,-0.44,0.56,91.62,-12.13,-64.30,27.56,male1_walking0
166,4511052,896.36,-1682.74,1001.40,4.28,-18.03,137.25,-251,-118,-852,0.62,-0.28,-0.45,0.58,94.81,-12.60,-63.28,28.34,335.14,-1436.22,1105.59,-85.21,-25.38,225.73,-251,-118,-852,0.58,-0.31,-0.43,0.62,97.74,-6.84,-63.32,27.55,male1_walking0
167,4511109,804.87,-1569.70,1057.50,17.86,-13.90,126.46,-415,-51,-880,0.59,-0.28,-0.42,0.62,98.17,-8.46,-60.97,28.31,384.89,-1534.06,1125.61,-112.31,-39.10,249.99,-415,-51,-880,0.56,-0.31,-0.42,0.64,100.45,-3.94,-62.59,27.56,male1_walking0
168,4511166,669.92,-1474.00,1045.78,16.59,-7.63,83.83,-415,-51,-880,0.58,-0.29,-0.41,0.64,99.44,-6.49,-60.04,28.32,170.53,-1881.84,969.24,-108.67,-97.34,249.99,-415,-51,-880,0.53,-0.32,-0.42,0.66,103.19,-1.22,-64.26,27.55,male1_walking0
169,4511222,230.47,-1974.49,578.19,14.21,12.78,94.16,-415,-51,-880,0.53,-0.35,-0.42,0.64,101.17,-0.10,-66.62,28.33,-130.31,-1830.38,628.11,-74.84,-75.85,228.79,-249,-34,-877,0.49,-0.39,-0.42,0.66,103.00,6.26,-69.93,27.56,male1_walking0
170,4511278,-997.56,-2000.00,852.97,27.08,-8.42,11.45,-249,-34,-877,0.48,-0.42,-0.38,0.67,100.64,11.77,-68.46,28.31,-1017.94,-1785.52,459.35,8.75,21.39,4.82,-249,-34,-877,0.47,-0.47,-0.35,0.66,97.67,16.92,-70.27,27.55,male1_walking0
171,4511334,-381.47,-1811.83,989.07,-15.00,7.66,11.05,-249,-34,-877,0.49,-0.45,-0.34,0.66,97.10,15.57,-68.12,28.32,47.79,-1913.82,1022.64,74.43,136.19,-134.83,-253,-65,-867,0.56,-0.42,-0.34,0.63,91.65,8.71,-65.31,27.56,male1_walking0
172,4511391,993.71,-2000.00,804.63,-10.10,96.07,-81.83,-253,-65,-867,0.60,-0.39,-0.39,0.58,89.07,-1.48,-66.87,28.29,244.87,-2000.00,-33.45,27.30,108.02,-68.21,-253,-65,-867,0.60,-0.41,-0.43,0.54,87.31,-3.79,-72.25,27.56,male1_walking0
173,4511447,826.66,-2000.00,947.20,51.45,-38.98,-92.53,-253,-65,-867,0.63,-0.34,-0.46,0.53,89.22,-11.91,-68.87,28.33,424.56,-1556.46,1285.83,41.19,34.03,-91.48,-253,-65,-867,0.66,-0.30,-0.43,0.54,87.37,-14.19,-62.35,27.56,male1_walking0
174,4511504,797.24,-1906.43,1160.64,14.11,65.20,-69.88,-442,-51,-880,0.68,-0.28,-0.43,0.53,85.87,-16.86,-60.10,28.29,-129.46,-2000.00,941.47,33.63,-15.38,-57.34,-442,-51,-880,0.66,-0.29,-0.42,0.55,87.40,-13.32,-60.35,27.56,male1_walking0
175,4511560,481.08,-1999.94,971.44,26.22,14.05,-71.71,-442,-51,-880,0.66,-0.28,-0.42,0.55,87.69,-14.73,-60.36,28.32,75.74,-2000.00,931.70,21.24,0.48,-39.60,-442,-51,-880,0.65,-0.30,-0.42,0.56,88.69,-12.33,-60.93,27.57,male1_walking0
176,4511616,521.00,-1995.79,1010.01,20.94,-47.78,-72.10,-468,-60,-879,0.65,-0.27,-0.44,0.56,90.47,-15.23,-61.05,28.33,-89.72,-1955.63,840.27,13.72,-43.27,-37.09,-468,-60,-879,0.63,-0.29,-0.43,0.57,92.06,-12.18,-62.32,27.55,male1_walking0
177,4511672,464.11,-1960.63,951.17,15.88,-40.53,-75.50,-468,-60,-879,0.63,-0.28,-0.45,0.57,92.67,-14.65,-62.41,28.31,-247.62,-1945.98,785.95,15.37,-53.11,-34.81,-468,-60,-879,0.61,-0.30,-0.44,0.58,94.10,-10.56,-63.73,27.57,male1_walking0
178,4511729,287.41,-1954.77,951.29,31.38,-47.46,-73.99,-442,-37,-860,0.62,-0.29,-0.44,0.58,93.94,-12.32,-62.92,28.30,-264.28,-1938.96,847.90,11.99,0.08,-33.01,-442,-37,-860,0.61,-0.32,-0.42,0.59,93.32,-8.16,-63.48,27.57,male1_walking0
179,4511786,373.84,-1966.67,1026.92,18.44,22.66,-82.83,-442,-37,-860,0.63,-0.31,-0.42,0.58,91.31,-10.43,-62.36,28.30,-229.61,-1919.49,771.67,13.49,11.81,-43.95,-442,-37,-860,0.62,-0.33,-0.41,0.58,90.97,-6.82,-63.46,27.57,male1_walking0
180,4511842,497.92,-2000.00,1023.19,10.86,4.78,-64.31,-442,-37,-860,0.63,-0.31,-0.42,0.57,90.42,-9.96,-62.90,28.31,-230.35,-2000.00,817.69,15.89,-22.76,-58.71,-329,-49,-872,0.62,-0.33,-0.41,0.58,90.93,-7.30,-63.82,27.56,male1_walking0
181,4511898,269.10,-2000.00,894.53,6.31,-50.17,-60.17,-329,-49,-872,0.62,-0.32,-0.43,0.58,91.99,-9.41,-64.32,28.31,-392.70,-2000.00,632.75,16.63,-39.18,-80.57,-329,-49,-872,0.60,-0.34,-0.43,0.58,92.42,-6.59,-66.05,27.57,male1_walking0
182,4511955,337.04,-2000.00,1015.14,-11.02,-41.03,-48.04,-329,-49,-872,0.61,-0.33,-0.44,0.58,92.97,-8.94,-65.59,28.31,-299.80,-2000.00,885.68,13.34,-7.94,-106.89,-456,-37,-853,0.61,-0.34,-0.42,0.58,91.96,-7.12,-65.22,27.57,male1_walking0
183,4512011,43.64,-2000.00,1095.76,-21.91,-15.08,-25.37,-456,-37,-853,0.61,-0.34,-0.42,0.59,92.16,-6.24,-64.72,28.30,-711.49,-2000.00,694.34,6.97,4.03,-135.68,-456,-37,-853,0.60,-0.37,-0.40,0.59,90.78,-3.03,-65.98,27.57,male1_walking0
184,4512067,-329.83,-2000.00,399.60,-36.06,-12.03,40.44,-456,-37,-853,0.56,-0.41,-0.41,0.59,92.11,1.33,-70.63,28.30,-198.43,-2000.00,767.88,39.76,2.72,-153.47,-470,-89,-826,0.58,-0.39,-0.41,0.58,91.45,-1.49,-69.06,27.55,male1_walking0
185,4512124,364.93,-2000.00,1177.43,-49.93,33.78,42.93,-470,-89,-826,0.58,-0.38,-0.41,0.59,92.12,-1.94,-67.83,28.30,498.54,-2000.00,1241.39,50.67,137.74,-116.46,-470,-89,-826,0.63,-0.35,-0.40,0.57,88.07,-6.09,-63.48,27.56,male1_walking0
186,4512179,1382.75,-2000.00,916.56,-54.08,57.26,76.92,-470,-89,-826,0.63,-0.33,-0.44,0.56,90.00,-10.58,-65.57,28.31,567.69,-1504.82,966.55,6.13,8.32,-5.74,-470,-89,-826,0.63,-0.30,-0.44,0.56,91.02,-12.48,-63.19,27.56,male1_walking0
187,4512236,976.44,-1862.73,917.85,-29.76,-23.99,106.35,-470,-65,-823,0.62,-0.29,-0.46,0.57,94.32,-13.65,-64.71,28.31,363.40,-1406.49,1173.58,-34.87,-1.93,111.78,-470,-65,-823,0.61,-0.29,-0.43,0.60,95.01,-10.50,-62.14,27.57,male1_walking0
188,4512293,893.92,-1774.48,936.28,5.80,-4.77,129.04,-470,-65,-823,0.60,-0.28,-0.44,0.60,96.69,-11.11,-62.33,28.30,407.53,-1415.83,1039.61,-67.99,-15.41,194.64,-470,-65,-823,0.58,-0.30,-0.43,0.62,98.44,-7.27,-62.39,27.55,male1_walking0
189,4512349,838.44,-1648.50,956.36,21.07,-11.17,123.49,-161,16,-819,0.60,-0.29,-0.42,0.62,97.12,-8.13,-61.21,28.30,380.62,-1493.53,1047.00,-96.27,-37.12,249.99,-161,16,-819,0.57,-0.32,-0.41,0.64,98.28,-3.15,-62.65,27.57,male1_walking0
190,4512406,625.06,-1516.24,1052.31,17.30,-18.84,89.42,-161,16,-819,0.59,-0.30,-0.40,0.63,97.07,-4.81,-60.11,28.30,174.74,-1840.64,1004.52,-108.20,-72.91,249.99,-161,16,-819,0.55,-0.35,-0.40,0.65,99.55,0.70,-63.63,27.56,male1_walking0
191,4512462,464.90,-1937.93,854.86,25.77,11.71,70.97,-361,372,-823,0.60,-0.37,-0.38,0.60,90.67,-0.58,-63.42,28.29,38.57,-1952.88,495.54,-86.05,-84.28,248.97,-361,372,-823,0.57,-0.42,-0.38,0.59,89.54,4.10,-69.00,27.53,male1_walking0
192,4512518,-607.48,-1960.94,838.93,47.68,7.13,34.07,-361,372,-823,0.59,-0.45,-0.32,0.58,83.57,8.58,-67.06,28.30,-1036.32,-1937.93,420.96,-18.71,-37.03,81.27,-361,372,-823,0.57,-0.51,-0.29,0.58,80.59,15.19,-70.17,27.55,male1_walking0
193,4512575,-509.77,-2000.00,674.07,-5.36,5.63,18.36,-361,372,-823,0.59,-0.52,-0.27,0.56,76.68,15.44,-70.70,28.33,-210.63,-1764.71,923.03,53.09,109.23,-90.55,-470,375,-826,0.65,-0.50,-0.25,0.52,70.26,11.32,-67.37,27.56,male1_walking0
194,4512631,994.26,-1645.26,1289.67,-36.22,46.62,-33.41,-470,375,-826,0.69,-0.45,-0.29,0.48,68.36,1.55,-64.86,28.31,22.83,-2000.00,-113.77,15.02,86.46,-43.79,-470,375,-826,0.68,-0.50,-0.31,0.44,65.61,0.68,-72.01,27.56,male1_walking0
195,4512687,512.08,-2000.00,722.35,20.59,-3.70,-60.36,-470,375,-826,0.70,-0.47,-0.34,0.42,65.78,-5.14,-70.97,28.30,173.16,-1730.04,1036.74,38.38,31.20,-99.08,-415,375,-873,0.73,-0.43,-0.34,0.42,64.64,-7.37,-66.37,27.58,male1_walking0
196,4512743,888.55,-1759.83,1264.95,26.24,106.20,-58.60,-415,375,-873,0.76,-0.40,-0.34,0.39,61.98,-11.60,-62.11,28.28,-43.88,-2000.00,853.39,34.23,-46.53,-63.26,-415,375,-873,0.75,-0.40,-0.34,0.41,64.45,-10.20,-62.57,27.57,male1_walking0
197,4512800,301.94,-1944.89,994.69,25.17,-8.28,-74.64,-415,375,-873,0.75,-0.39,-0.35,0.41,64.99,-11.57,-61.79,28.32,-87.10,-2000.00,958.01,23.27,20.13,-45.47,-332,336,-879,0.74,-0.40,-0.33,0.43,65.24,-8.62,-61.64,27.57,male1_walking0
198,4512856,541.63,-2000.00,1059.81,18.93,-11.15,-68.44,-332,336,-879,0.75,-0.38,-0.35,0.42,65.78,-11.88,-61.12,28.31,32.17,-1973.82,869.32,12.05,-17.07,-39.30,-332,336,-879,0.74,-0.39,-0.35,0.43,66.82,-10.19,-62.11,27.58,male1_walking0
199,4512911,632.81,-1982.12,956.97,17.88,-17.88,-78.75,-332,336,-879,0.74,-0.37,-0.37,0.41,67.08,-14.38,-62.09,28.31,-117.92,-1955.69,870.36,11.78,-47.85,-32.62,-332,336,-879,0.73,-0.38,-0.36,0.44,68.69,-11.04,-63.02,27.57,male1_walking0
200,4512969,324.46,-1957.64,1015.69,28.68,-52.83,-74.42,-307,328,-877,0.73,-0.37,-0.37,0.44,69.32,-12.92,-62.14,28.28,-394.96,-1942.44,795.04,8.42,-19.53,-31.33,-307,328,-877,0.72,-0.40,-0.35,0.45,69.64,-7.74,-63.46,27.57,male1_walking0
201,4513024,182.19,-1978.33,989.87,20.63,5.79,-71.45,-307,328,-877,0.73,-0.39,-0.34,0.45,68.66,-8.60,-62.72,28.29,-348.02,-1967.53,708.62,9.24,16.90,-48.00,-307,328,-877,0.71,-0.42,-0.33,0.45,68.15,-4.68,-64.41,27.56,male1_walking0
202,4513080,457.64,-1995.91,928.71,2.72,22.64,-66.70,-442,372,-867,0.73,-0.41,-0.34,0.43,67.08,-8.18,-64.39,28.32,-112.61,-1974.12,772.34,10.86,7.58,-61.45,-442,372,-867,0.72,-0.42,-0.34,0.44,67.01,-6.58,-65.13,27.56,male1_walking0
203,4513136,518.19,-2000.00,937.62,-2.47,-23.52,-64.16,-442,372,-867,0.73,-0.40,-0.36,0.42,67.57,-10.36,-65.16,28.31,-246.52,-2000.00,729.19,11.12,-18.92,-76.90,-442,372,-867,0.71,-0.42,-0.35,0.44,68.08,-7.31,-66.34,27.55,male1_walking0
204,4513199,357.91,-2000.00,947.08,-12.23,-27.62,-53.79,-456,372,-850,0.72,-0.41,-0.36,0.43,68.61,-9.65,-66.26,28.29,-262.27,-2000.00,777.40,12.20,-5.96,-97.75,-456,372,-850,0.71,-0.42,-0.35,0.44,68.17,-7.75,-66.47,27.57,male1_walking0
205,4513254,167.60,-2000.00,1080.32,-20.98,-35.22,-25.87,-456,372,-850,0.71,-0.41,-0.35,0.44,69.11,-7.78,-65.75,28.29,-566.22,-2000.00,720.09,9.77,-22.79,-128.76,-456,372,-850,0.71,-0.43,-0.34,0.45,68.55,-5.31,-66.54,27.57,male1_walking0
206,4513312,-309.57,-2000.00,889.83,-35.80,-50.74,25.06,-456,372,-850,0.68,-0.45,-0.33,0.47,70.37,-1.35,-67.54,28.31,-428.34,-2000.00,107.42,18.07,22.92,-154.01,-358,331,-826,0.67,-0.48,-0.34,0.44,68.13,-1.52,-72.29,27.56,male1_walking0
207,4513369,490.78,-2000.00,998.84,-39.51,18.84,21.37,-358,331,-826,0.69,-0.47,-0.35,0.44,68.25,-3.78,-71.01,28.29,168.33,-2000.00,1248.54,51.85,116.45,-113.53,-358,331,-826,0.72,-0.44,-0.32,0.42,64.41,-5.61,-65.68,27.57,male1_walking0
208,4513424,1063.23,-2000.00,994.08,-44.61,103.12,72.92,-358,331,-826,0.73,-0.43,-0.34,0.41,64.12,-8.01,-66.23,28.30,592.35,-1635.07,985.78,18.71,54.99,-63.64,-415,44,-846,0.73,-0.39,-0.36,0.43,68.23,-11.53,-63.54,27.58,male1_walking0
209,4513491,970.58,-1872.19,933.11,-34.30,0.56,104.97,-415,44,-846,0.69,-0.36,-0.41,0.47,77.25,-12.69,-65.20,28.33,338.50,-1406.13,1207.46,-43.75,32.94,89.70,-415,44,-846,0.68,-0.35,-0.38,0.51,79.42,-9.58,-62.17,27.57,male1_walking0
210,4513548,937.74,-1819.70,939.64,-0.39,18.84,130.65,-415,44,-846,0.67,-0.34,-0.40,0.53,83.03,-10.30,-62.53,28.31,411.44,-1423.10,1090.27,-71.35,0.73,172.42,-138,317,-941,0.67,-0.37,-0.37,0.53,80.92,-5.81,-62.52,27.56,male1_walking0
211,4513604,844.12,-1712.22,955.38,16.58,5.00,127.33,-138,317,-941,0.68,-0.37,-0.37,0.52,79.36,-6.55,-62.00,28.31,405.33,-1510.93,1070.80,-97.16,-23.19,243.45,-138,317,-941,0.66,-0.39,-0.35,0.54,80.11,-1.91,-63.32,27.56,male1_walking0
212,4513660,711.43,-1590.76,952.64,18.46,-5.91,98.17,-138,317,-941,0.67,-0.38,-0.35,0.53,78.86,-4.12,-61.86,28.31,270.87,-1637.33,1020.81,-106.38,-46.20,249.99,-422,317,-971,0.64,-0.40,-0.34,0.55,81.51,0.46,-64.06,27.56,male1_walking0
213,4513716,622.01,-1711.91,968.02,28.01,13.57,68.53,-422,317,-971,0.66,-0.39,-0.35,0.54,79.75,-2.46,-62.34,28.31,174.32,-2000.00,755.19,-85.39,-79.51,249.99,-422,317,-971,0.62,-0.42,-0.35,0.56,82.93,2.07,-66.67,27.56,male1_walking0
214,4513773,31.07,-1914.31,458.98,59.27,18.68,60.28,-422,317,-971,0.63,-0.44,-0.34,0.54,80.26,3.05,-67.82,28.31,-651.00,-1976.32,739.75,-34.65,-93.64,147.73,-422,317,-971,0.59,-0.47,-0.32,0.57,82.07,9.43,-68.95,27.56,male1_walking0
215,4513828,-881.35,-2000.00,490.30,7.36,-43.95,27.40,-249,372,-853,0.58,-0.51,-0.29,0.57,79.16,14.27,-70.82,28.33,-512.70,-1691.65,787.41,38.31,59.59,-57.23,-249,372,-853,0.61,-0.51,-0.26,0.55,74.73,14.13,-68.81,27.57,male1_walking0
216,4513884,167.18,-1890.93,1221.92,-11.80,20.84,-2.30,-249,372,-853,0.64,-0.48,-0.27,0.53,73.23,9.48,-66.00,28.31,-291.26,-2000.00,604.61,40.45,111.30,-52.50,-249,372,-853,0.66,-0.50,-0.25,0.50,68.11,9.20,-67.51,27.56,male1_walking0
217,4513941,-187.07,-2000.00,-159.18,-30.50,106.19,-23.27,-329,319,-879,0.64,-0.55,-0.28,0.46,64.90,8.43,-76.70,28.29,26.73,-2000.00,793.95,52.41,60.69,-110.20,-329,319,-879,0.67,-0.52,-0.30,0.44,64.26,3.65,-73.50,27.57,male1_walking0
218,4513996,1205.87,-1693.79,1000.43,-2.80,65.19,-61.88,-329,319,-879,0.71,-0.46,-0.35,0.40,63.62,-7.48,-70.34,28.29,400.45,-1747.99,1102.72,48.01,-47.65,-70.01,-329,319,-879,0.73,-0.41,-0.36,0.41,65.83,-10.75,-65.85,27.55,male1_walking0
219,4514054,323.00,-2000.00,1100.71,18.03,-34.84,-66.82,-246,345,-934,0.74,-0.39,-0.36,0.41,66.64,-12.31,-63.91,28.29,-300.29,-1909.97,934.20,18.19,25.87,-58.18,-246,345,-934,0.73,-0.41,-0.33,0.43,65.81,-8.09,-63.16,27.57,male1_walking0
220,4514110,623.47,-1986.33,948.67,19.33,21.60,-63.86,-246,345,-934,0.74,-0.39,-0.35,0.41,65.27,-11.76,-62.72,28.29,103.76,-2000.00,850.89,19.62,5.52,-40.13,-246,345,-934,0.74,-0.40,-0.35,0.42,65.65,-10.29,-63.19,27.55,male1_walking0
221,4514166,575.26,-1982.97,987.12,14.38,-6.86,-67.14,-246,345,-934,0.75,-0.38,-0.36,0.41,65.75,-13.57,-62.70,28.28,-16.72,-1948.24,868.53,15.43,-38.22,-34.34,-442,358,-954,0.73,-0.39,-0.36,0.43,67.89,-11.11,-63.27,27.56,male1_walking0
222,4514222,478.76,-2000.00,947.39,16.03,-41.65,-60.16,-442,358,-954,0.73,-0.37,-0.38,0.43,69.25,-13.44,-63.30,28.31,-230.53,-1923.03,806.03,11.05,-14.63,-31.72,-442,358,-954,0.69,-0.43,-0.33,0.48,70.99,-2.27,-65.31,27.57,male1_walking0
223,4514324,349.00,-1975.10,963.07,20.71,8.01,-67.21,-463,375,-988,0.71,-0.41,-0.34,0.46,69.90,-6.11,-64.23,28.30,-364.99,-1967.10,725.22,11.68,-21.87,-73.08,-468,377,-932,0.65,-0.51,-0.29,0.49,68.79,7.01,-71.48,27.56,male1_walking0
224,4514522,363.89,-2000.00,957.89,-14.51,-26.98,-41.76,-468,377,-932,0.67,-0.48,-0.32,0.47,69.41,1.09,-69.98,28.31,-257.20,-2000.00,805.54,13.73,-25.62,-99.61,-468,377,-932,0.68,-0.47,-0.32,0.47,69.32,-0.13,-69.10,27.57,male1_walking0
225,4514578,48.28,-2000.00,1015.20,-21.64,-51.06,-24.62,-468,377,-932,0.68,-0.45,-0.33,0.47,70.70,-1.64,-68.02,28.30,-644.35,-2000.00,681.27,6.42,-11.53,-129.65,-321,379,-873,0.68,-0.47,-0.32,0.47,68.86,0.02,-68.70,27.57,male1_walking0
226,4514635,-311.58,-2000.00,774.41,-38.51,-13.30,32.26,-321,379,-873,0.67,-0.48,-0.31,0.48,69.26,3.01,-69.82,28.32,-75.07,-2000.00,242.68,23.14,47.43,-142.09,-321,379,-873,0.68,-0.50,-0.33,0.44,66.25,-0.44,-72.82,27.56,male1_walking0
227,4514691,638.31,-2000.00,1057.43,-49.30,-1.66,28.77,-321,379,-873,0.69,-0.47,-0.34,0.43,66.96,-4.01,-71.36,28.29,168.03,-2000.00,1122.31,36.76,82.77,-96.78,-321,379,-873,0.72,-0.45,-0.33,0.42,63.90,-5.83,-67.01,27.59,male1_walking0
228,4514747,868.65,-2000.00,998.96,-57.27,66.40,73.37,-246,348,-880,0.72,-0.44,-0.34,0.41,64.23,-7.73,-67.60,28.29,601.20,-1446.59,1181.82,13.69,42.06,-78.64,-246,348,-880,0.75,-0.40,-0.35,0.39,62.76,-12.01,-62.73,27.58,male1_walking0
229,4514804,947.20,-1908.26,1057.50,-42.86,3.10,94.47,-246,348,-880,0.74,-0.39,-0.36,0.40,65.16,-12.94,-63.71,28.29,274.29,-1407.65,1209.35,-53.67,41.08,65.70,-246,348,-880,0.75,-0.39,-0.33,0.42,64.75,-9.77,-61.19,27.56,male1_walking0
230,4514860,822.88,-1856.26,1073.55,-9.76,34.45,114.34,-199,61,-877,0.73,-0.36,-0.36,0.46,70.62,-10.94,-60.89,28.31,278.56,-1464.60,1221.25,-91.86,21.41,129.85,-199,61,-877,0.71,-0.37,-0.35,0.49,74.18,-7.86,-60.44,27.57,male1_walking0
231,4514917,722.78,-1831.79,1113.95,4.24,56.26,126.40,-199,61,-877,0.70,-0.35,-0.35,0.51,76.88,-7.71,-59.77,28.31,284.48,-1608.64,1241.58,-130.18,17.05,203.26,-199,61,-877,0.67,-0.37,-0.35,0.54,80.59,-3.22,-61.42,27.58,male1_walking0
232,4514973,583.07,-1710.33,1112.61,11.99,74.75,96.15,-468,319,-912,0.69,-0.37,-0.33,0.53,77.54,-3.34,-59.68,28.31,234.44,-1826.66,1174.68,-165.04,73.69,238.73,-468,319,-912,0.66,-0.42,-0.32,0.54,77.53,2.11,-63.43,27.56,male1_walking0
233,4515028,474.79,-1738.89,920.72,6.71,128.47,61.47,-468,319,-912,0.68,-0.42,-0.31,0.51,73.54,0.90,-62.88,28.31,83.50,-1941.65,872.92,-154.80,101.83,228.22,-468,319,-912,0.65,-0.48,-0.29,0.52,73.43,6.57,-67.84,27.57,male1_walking0
234,4515085,278.32,-2000.00,551.94,3.26,184.88,47.51,-468,319,-912,0.66,-0.50,-0.29,0.48,68.39,5.72,-70.17,28.31,5.62,-1944.82,454.71,-102.85,127.90,186.10,-305,-118,-953,0.60,-0.53,-0.31,0.52,73.88,10.08,-74.64,27.56,male1_walking0
235,4515141,-138.98,-2000.00,409.55,-0.24,96.22,16.47,-305,-118,-953,0.58,-0.52,-0.33,0.53,77.32,9.96,-76.16,28.30,-511.05,-1852.48,826.48,-6.15,106.61,73.71,-305,-118,-953,0.56,-0.52,-0.31,0.57,80.38,14.12,-73.98,27.57,male1_walking0
236,4515198,-197.27,-1946.66,1043.33,13.72,52.94,25.08,-305,-118,-953,0.56,-0.49,-0.32,0.59,84.44,12.87,-70.37,28.31,28.99,-1870.18,1000.06,50.07,125.50,-48.87,-470,98,-988,0.61,-0.46,-0.31,0.57,80.72,8.93,-67.18,27.56,male1_walking0
237,4515253,1231.87,-2000.00,822.88,20.38,159.65,-57.29,-470,98,-988,0.65,-0.43,-0.35,0.51,76.86,-0.70,-67.34,28.30,608.28,-1879.82,370.42,50.14,36.98,-55.56,-470,98,-988,0.67,-0.40,-0.43,0.47,78.57,-11.34,-70.74,27.56,male1_walking0
238,4515369,586.30,-2000.00,966.67,29.56,-6.92,-51.09,-409,-65,-934,0.66,-0.30,-0.45,0.52,86.98,-16.56,-65.00,28.30,-320.50,-1910.52,718.26,34.99,-21.14,-25.22,-409,-65,-934,0.63,-0.33,-0.43,0.55,89.12,-10.98,-65.28,27.58,male1_walking0
239,4515425,117.19,-1978.52,979.98,30.68,-35.92,-46.09,-409,-65,-934,0.63,-0.32,-0.43,0.57,90.65,-10.41,-64.03,28.29,-373.72,-2000.00,817.26,32.84,31.44,-22.23,-409,-65,-934,0.61,-0.35,-0.40,0.58,90.50,-5.15,-64.02,27.55,male1_walking0
240,4515481,267.52,-2000.00,992.86,18.87,43.85,-38.80,-380,-49,-959,0.63,-0.34,-0.40,0.58,89.38,-6.19,-63.15,28.31,-81.97,-1998.66,825.44,20.26,37.21,-23.54,-380,-49,-959,0.62,-0.35,-0.39,0.58,89.11,-4.15,-63.68,27.56,male1_walking0
241,4515538,600.59,-1983.52,930.48,13.08,54.79,-43.74,-380,-49,-959,0.64,-0.34,-0.41,0.56,88.15,-7.81,-63.49,28.28,29.17,-1970.46,765.99,8.00,20.74,-16.77,-380,-49,-959,0.63,-0.35,-0.41,0.57,88.69,-6.26,-64.56,27.57,male1_walking0
242,4515594,531.74,-1984.37,899.78,12.15,18.84,-46.03,-253,-65,-981,0.64,-0.33,-0.42,0.56,88.77,-9.88,-64.40,28.30,-140.20,-1907.96,726.62,-0.21,16.43,-8.49,-253,-65,-981,0.62,-0.35,-0.41,0.57,89.24,-6.54,-65.57,27.56,male1_walking0
243,4515650,361.39,-1921.94,939.27,12.92,54.66,-51.45,-253,-65,-981,0.63,-0.34,-0.41,0.56,88.07,-8.30,-64.48,28.31,-189.39,-1954.71,740.05,1.56,57.03,-5.27,-253,-65,-981,0.62,-0.37,-0.40,0.57,87.84,-4.45,-65.55,27.59,male1_walking0
244,4515706,451.29,-2000.00,901.12,10.55,68.72,-47.94,-253,-99,-988,0.63,-0.35,-0.41,0.55,87.42,-7.55,-65.10,28.27,-246.46,-1947.33,660.89,0.34,33.17,-15.14,-253,-99,-988,0.61,-0.37,-0.40,0.57,88.33,-4.32,-66.51,27.58,male1_walking0
245,4515762,320.98,-2000.00,935.00,-1.32,51.98,-43.36,-253,-99,-988,0.62,-0.36,-0.41,0.56,88.31,-6.28,-65.99,28.32,-208.07,-1963.75,665.65,-0.43,39.10,-27.13,-253,-99,-988,0.61,-0.38,-0.41,0.57,88.85,-3.56,-67.33,27.57,male1_walking0
246,4515818,512.02,-1964.36,897.34,-10.80,22.35,-34.35,-246,-106,-988,0.62,-0.35,-0.43,0.56,89.80,-7.63,-67.10,28.30,-95.76,-1946.11,800.05,-2.59,26.12,-34.27,-246,-106,-988,0.61,-0.36,-0.42,0.57,90.15,-5.76,-67.19,27.57,male1_walking0
247,4515874,610.05,-1958.13,1000.18,-13.62,18.42,-32.12,-246,-106,-988,0.62,-0.34,-0.44,0.56,90.59,-9.48,-66.36,28.29,-46.57,-1917.79,764.10,-7.93,19.71,-35.75,-246,-106,-988,0.61,-0.35,-0.43,0.57,90.81,-7.45,-66.96,27.58,male1_walking0
248,4515931,614.50,-1981.14,982.85,-21.07,18.65,-31.17,-246,-106,-988,0.62,-0.33,-0.44,0.56,91.00,-10.67,-66.54,28.30,-76.60,-1989.81,765.38,-7.03,5.91,-41.50,-249,-120,-981,0.61,-0.34,-0.44,0.57,91.62,-8.34,-67.32,27.55,male1_walking0
249,4515986,333.92,-2000.00,1094.97,-28.46,10.62,-26.53,-249,-120,-981,0.61,-0.33,-0.44,0.57,91.93,-9.12,-66.36,28.30,-341.61,-2000.00,686.34,-17.94,23.79,-60.67,-249,-120,-981,0.60,-0.36,-0.43,0.57,91.75,-5.72,-67.94,27.57,male1_walking0
250,4516043,57.19,-2000.00,963.44,-52.67,27.15,-5.53,-249,-120,-981,0.59,-0.37,-0.43,0.58,92.11,-4.51,-68.34,28.30,-515.20,-2000.00,655.09,-26.78,41.43,-96.24,-361,-116,-958,0.58,-0.39,-0.42,0.58,91.33,-1.64,-69.92,27.57,male1_walking0
251,4516100,40.10,-2000.00,842.04,-68.58,32.69,15.25,-361,-116,-958,0.57,-0.40,-0.42,0.58,92.09,-0.74,-71.05,28.29,-321.35,-2000.00,717.71,-28.67,62.06,-116.97,-361,-116,-958,0.57,-0.41,-0.42,0.57,90.71,-0.64,-71.58,27.56,male1_walking0
252,4516157,97.29,-1912.78,1244.63,-62.36,59.57,22.64,-361,-116,-958,0.58,-0.40,-0.40,0.59,91.00,0.06,-69.15,28.29,-55.11,-1986.94,1170.72,-47.03,127.41,-98.42,-442,-7,-975,0.61,-0.40,-0.39,0.57,86.49,-0.81,-67.69,27.57,male1_walking0
253,4516213,547.97,-2000.00,1557.62,-64.41,191.70,31.99,-442,-7,-975,0.64,-0.40,-0.36,0.55,82.85,-1.01,-65.08,28.26,109.50,-1929.81,1640.01,-77.80,241.71,-107.48,-442,-7,-975,0.67,-0.40,-0.33,0.53,77.77,-1.18,-62.90,27.58,male1_walking0
254,4516270,697.51,-2000.00,1732.97,-70.65,249.99,70.51,-442,-7,-975,0.68,-0.40,-0.31,0.53,75.77,-0.06,-60.89,28.29,301.09,-1591.25,1544.19,-155.78,240.25,-59.27,-442,-7,-975,0.69,-0.40,-0.31,0.51,73.32,-0.66,-61.05,27.59,male1_walking0
255,4516325,1025.51,-2000.00,1346.56,-48.49,224.94,79.31,-459,-120,-981,0.69,-0.39,-0.32,0.52,75.36,-2.39,-61.05,28.31,187.01,-1709.11,1614.44,-159.84,142.30,23.83,-459,-120,-981,0.67,-0.39,-0.32,0.53,77.60,-0.98,-61.33,27.57,male1_walking0
256,4516382,749.27,-2000.00,1318.42,-33.23,204.79,95.39,-459,-120,-981,0.67,-0.39,-0.33,0.55,79.06,-0.74,-60.89,28.27,331.18,-1770.39,1505.43,-179.64,155.17,71.53,-459,-120,-981,0.65,-0.40,-0.33,0.56,80.88,0.68,-62.67,27.57,male1_walking0
257,4516440,723.45,-2000.00,1048.65,-25.55,196.73,120.71,-304,-256,-516,0.62,-0.39,-0.35,0.59,86.46,1.78,-63.22,28.31,288.64,-1785.22,1452.88,-166.26,145.02,128.04,-304,-256,-516,0.58,-0.40,-0.35,0.62,91.28,4.69,-64.21,27.57,male1_walking0
258,4516495,705.02,-1964.17,1024.41,4.26,146.58,117.42,-304,-256,-516,0.56,-0.38,-0.37,0.64,95.10,3.95,-63.64,28.31,363.22,-1714.72,1352.36,-134.33,99.37,184.44,-304,-256,-516,0.52,-0.38,-0.37,0.67,99.88,6.55,-63.90,27.58,male1_walking0
259,4516552,812.13,-1791.69,931.34,14.72,105.57,103.36,-205,-277,-108,0.49,-0.34,-0.37,0.71,107.72,6.99,-60.44,28.31,366.27,-1705.14,1154.60,-111.05,40.29,231.45,-205,-277,-108,0.41,-0.33,-0.37,0.76,116.89,11.30,-59.41,27.57,male1_walking0
260,4516608,662.11,-1653.14,858.83,26.96,74.17,84.40,-205,-277,-108,0.40,-0.29,-0.39,0.78,121.82,8.24,-57.74,28.31,348.94,-1801.27,888.67,-69.01,5.29,224.53,-205,-277,-108,0.33,-0.28,-0.41,0.80,129.66,10.41,-59.11,27.57,male1_walking0
261,4516745,-292.91,-1909.36,795.41,23.01,80.09,-11.28,-456,-338,-98,0.37,-0.35,-0.43,0.75,120.20,11.48,-66.71,28.29,-181.46,-1837.28,839.29,52.16,101.59,-69.15,-456,-338,-98,0.39,-0.34,-0.42,0.75,118.72,10.61,-64.58,27.56,male1_walking0
262,4516800,726.62,-2000.00,936.95,-12.68,92.93,-70.67,-358,-325,-121,0.42,-0.30,-0.44,0.73,118.30,3.45,-64.28,28.30,-81.73,-2000.00,-55.54,26.22,124.79,-35.86,-358,-325,-121,0.40,-0.33,-0.47,0.72,118.16,5.92,-69.38,27.58,male1_walking0
263,4516881,989.26,-1947.39,1101.26,14.95,-15.04,-76.34,-358,-325,-121,0.44,-0.18,-0.49,0.73,123.93,-9.06,-62.16,28.31,-95.09,-1931.88,935.55,50.02,-22.13,-54.77,-397,-275,-38,0.38,-0.18,-0.44,0.80,130.68,-2.07,-56.32,27.58,male1_walking0
264,4516969,146.36,-2000.00,806.70,26.38,-8.96,-63.17,-397,-275,-38,0.37,-0.18,-0.46,0.79,131.55,-3.62,-58.31,28.30,-45.23,-1895.87,872.13,30.87,62.90,-47.49,-397,-275,-38,0.37,-0.19,-0.45,0.79,131.04,-1.67,-58.37,27.59,male1_walking0
265,4517025,738.04,-2000.00,970.64,25.58,13.00,-57.98,-397,-275,-38,0.39,-0.15,-0.46,0.78,131.36,-6.87,-58.36,28.31,-36.38,-1992.13,841.19,26.41,-28.17,-39.71,-470,-338,-40,0.36,-0.16,-0.47,0.79,133.86,-4.96,-58.83,27.58,male1_walking0
266,4517125,485.41,-1992.98,964.11,21.90,-29.26,-66.91,-470,-338,-40,0.37,-0.08,-0.49,0.79,137.69,-13.49,-58.85,28.31,-174.01,-1949.95,845.83,20.68,-21.15,-30.91,-470,-338,-40,0.34,-0.11,-0.49,0.80,139.78,-9.07,-59.58,27.56,male1_walking0
267,4517212,451.84,-1957.70,937.38,32.72,19.80,-67.71,-302,-337,-109,0.35,-0.07,-0.49,0.79,140.33,-13.00,-59.12,28.29,-175.54,-1947.45,822.02,18.31,6.49,-36.51,-302,-337,-109,0.30,-0.12,-0.50,0.80,142.41,-5.79,-61.28,27.59,male1_walking0
268,4517289,644.35,-1964.42,1000.37,18.51,1.51,-64.64,-346,-309,-116,0.33,-0.09,-0.50,0.79,141.24,-10.55,-61.27,28.29,-5.92,-2000.00,835.21,18.35,-16.91,-46.31,-346,-309,-116,0.32,-0.11,-0.51,0.79,141.63,-8.97,-62.26,27.59,male1_walking0
269,4517358,265.01,-2000.00,974.91,10.18,-53.70,-53.92,-346,-309,-116,0.32,-0.09,-0.52,0.79,143.05,-10.96,-62.59,28.30,-420.29,-1906.98,668.03,18.19,-38.37,-67.38,-346,-309,-116,0.30,-0.12,-0.52,0.79,143.61,-6.91,-64.38,27.57,male1_walking0
270,4517414,399.29,-2000.00,1015.63,-4.48,-34.54,-46.16,-442,-284,-125,0.32,-0.10,-0.53,0.78,142.65,-10.12,-64.90,28.29,-47.97,-2000.00,834.66,21.48,-21.26,-89.35,-442,-284,-125,0.32,-0.11,-0.53,0.78,141.58,-9.80,-65.27,27.58,male1_walking0
271,4517471,206.42,-2000.00,601.99,-42.94,7.00,28.85,-414,-227,-109,0.28,-0.22,-0.64,0.68,138.97,-3.63,-85.50,28.32,59.45,-2000.00,848.14,61.58,14.45,-137.50,-414,-227,-109,0.30,-0.19,-0.61,0.71,138.99,-5.37,-79.78,27.57,male1_walking0
272,4517633,474.43,-2000.00,1125.85,-53.66,49.04,66.43,-414,-227,-109,0.31,-0.19,-0.58,0.73,138.23,-4.53,-75.04,28.29,384.89,-1443.66,1130.49,-112.78,7.12,217.32,-266,-116,-111,0.25,-0.31,-0.42,0.81,135.91,17.03,-61.81,27.57,male1_walking0
273,4517883,857.97,-1601.07,1006.77,25.62,56.61,111.86,-183,-309,-119,0.27,-0.25,-0.43,0.82,138.09,10.47,-59.47,28.31,492.80,-1443.24,1087.52,-142.77,12.53,249.99,-183,-309,-119,0.23,-0.23,-0.45,0.83,143.47,10.26,-60.32,27.58,male1_walking0
274,4517939,812.26,-1512.88,835.69,6.39,52.18,56.07,-183,-309,-119,0.26,-0.18,-0.47,0.82,143.52,3.03,-60.40,28.32,363.46,-1768.55,885.50,-121.67,-50.36,249.99,-183,-309,-119,0.21,-0.18,-0.50,0.82,149.09,4.89,-63.88,27.58,male1_walking0
275,4518016,-164.00,-1931.34,413.88,46.47,29.03,45.53,-441,-323,-8,0.20,-0.21,-0.53,0.80,147.25,6.93,-69.35,28.33,368.84,-1723.82,1086.98,38.69,85.73,-97.79,-307,-284,-114,0.71,0.15,-0.40,0.55,84.96,-47.86,-20.48,27.58,male1_walking0
276,4518261,984.86,-2000.00,1141.85,44.61,-46.94,-67.18,-353,-282,18,0.58,0.14,-0.46,0.66,114.29,-45.71,-38.98,28.31,-523.38,-1881.84,941.35,20.44,-0.01,-57.12,-353,-282,18,0.45,0.01,-0.45,0.77,131.93,-24.94,-48.91,27.57,male1_walking0
277,4518343,517.88,-1950.07,1114.69,20.23,31.54,-72.99,-353,-282,18,0.41,0.00,-0.45,0.79,135.10,-21.77,-49.54,28.30,-219.48,-1981.63,853.82,19.44,-15.79,-40.46,-407,-289,-59,0.32,-0.13,-0.48,0.80,140.48,-5.38,-60.18,27.57,male1_walking0
278,4518451,452.27,-1958.98,974.49,20.42,-7.07,-73.33,-407,-289,-59,0.34,-0.11,-0.49,0.79,139.83,-9.38,-60.39,28.31,-192.87,-1961.43,838.99,22.52,-20.23,-40.90,-407,-289,-59,0.32,-0.13,-0.49,0.80,140.67,-6.38,-61.21,27.59,male1_walking0
279,4519771,398.86,-1927.67,1052.92,24.30,-4.24,-80.34,-307,-318,111,-0.14,0.11,0.66,0.73,-175.98,-19.72,82.90,28.29,-176.70,-1968.75,744.20,15.85,-4.79,-45.48,-307,-318,111,-0.13,0.13,0.64,0.75,-178.25,-20.52,80.81,27.58,male1_walking0
280,4519924,190.06,-2000.00,866.39,6.38,-63.15,-67.89,-470,-328,101,-0.09,0.27,0.50,0.82,171.73,-32.05,65.62,28.30,-347.78,-2000.00,844.54,14.81,-19.96,-119.64,-470,-338,16,-0.02,0.22,0.40,0.89,171.31,-23.51,50.20,27.57,male1_walking0
281,4520043,-407.96,-2000.00,1024.96,-20.06,-54.79,4.09,-470,-338,16,0.06,0.18,0.27,0.94,167.41,-17.73,34.06,28.29,-652.28,-2000.00,-47.91,16.04,25.01,-165.70,-470,-338,16,0.16,0.12,0.22,0.95,158.80,-9.08,27.73,27.58,male1_walking0
282,4520167,1081.24,-2000.00,940.98,-53.53,79.36,97.86,-234,-337,92,0.12,0.19,-0.24,0.94,172.02,-25.06,-26.65,28.29,740.60,-1620.67,1092.29,27.23,56.61,-55.06,-246,-120,90,0.18,0.17,-0.33,0.91,166.91,-25.35,-36.86,27.59,male1_walking0
283,4520220,1107.48,-1981.81,932.50,-35.33,-11.76,123.05,-246,-120,90,0.17,0.16,-0.42,0.88,170.07,-25.52,-49.05,28.30,480.90,-1288.33,1132.51,-51.41,-4.63,149.05,-246,-120,90,0.12,0.08,-0.49,0.86,172.32,-14.92,-58.21,27.57,male1_walking0
284,4520307,1027.04,-1657.90,909.97,17.62,-7.68,150.19,-246,-120,90,0.11,0.09,-0.50,0.85,174.42,-15.47,-60.38,28.30,344.91,-1437.93,1120.61,-114.99,-44.88,249.99,-87,-174,97,-0.17,0.03,-0.49,0.85,-161.08,6.48,-58.95,27.59,male1_walking0
285,4520423,574.40,-1615.36,1009.70,17.37,7.09,77.69,-87,-174,97,-0.15,0.06,-0.49,0.86,-160.99,2.47,-58.85,28.30,177.25,-2000.00,664.73,-85.34,-72.14,249.99,-329,-145,106,-0.21,0.09,-0.65,0.73,-154.98,7.71,-81.80,27.60,male1_walking0
286,4520557,-792.42,-2000.00,594.85,26.86,-64.41,27.05,-329,-145,106,-0.31,0.03,-0.59,0.74,-147.77,18.52,-71.50,28.31,-239.26,-2000.00,939.45,48.88,127.81,-88.29,-224,-114,45,-0.19,0.05,-0.60,0.78,-158.37,8.26,-73.87,27.58,male1_walking0
287,4520670,21.06,-2000.00,-69.70,-20.28,105.24,-50.45,-224,-114,45,-0.09,0.05,-0.71,0.70,-168.53,3.00,-90.11,28.29,308.17,-1966.74,843.69,49.61,59.62,-118.23,-344,-120,131,-0.04,0.11,-0.62,0.78,-168.27,-7.27,-77.76,27.58,male1_walking0
288,4520794,176.27,-1911.62,902.34,21.92,-40.05,-78.94,-344,-120,131,-0.03,0.16,-0.49,0.85,-167.57,-13.88,-61.66,28.31,233.34,-2000.00,896.06,25.05,26.70,-43.38,-463,-109,111,0.00,0.13,-0.56,0.82,-171.47,-12.87,-69.26,27.57,male1_walking0
289,4520948,442.69,-1971.86,918.40,27.69,-28.88,-76.07,-412,-120,90,0.09,0.16,-0.58,0.79,-176.39,-21.18,-73.46,28.29,-257.45,-1954.53,852.36,16.98,-29.36,-37.29,-412,-120,90,0.06,0.12,-0.59,0.80,-177.00,-15.38,-72.77,27.57,male1_walking0
290,4521028,325.74,-1942.32,1113.71,24.09,3.42,-85.46,-412,-120,90,0.09,0.11,-0.55,0.82,178.75,-16.14,-67.08,28.30,-184.75,-2000.00,798.40,13.35,-22.83,-63.31,-470,-106,97,0.06,0.02,-0.61,0.79,175.97,-6.32,-74.85,27.58,male1_walking0
291,4521138,214.23,-2000.00,910.83,5.46,-52.61,-69.66,-470,-106,97,0.08,0.06,-0.58,0.81,176.86,-10.60,-70.74,28.30,-326.29,-2000.00,866.09,15.21,-17.20,-117.68,-470,-89,90,0.08,0.02,-0.58,0.81,174.00,-7.05,-71.01,27.57,male1_walking0
292,4521256,-44.62,-2000.00,1103.64,-21.90,-40.35,-24.41,-470,-89,90,0.07,0.01,-0.58,0.81,174.15,-6.23,-70.50,28.30,16.17,-2000.00,1061.22,65.56,24.44,-120.96,-359,-104,11,0.23,0.02,-0.55,0.81,159.68,-16.63,-65.37,27.57,male1_walking0
293,4521391,830.20,-2000.00,978.45,-50.14,71.29,86.12,-359,-104,11,0.24,0.00,-0.57,0.79,157.49,-15.65,-68.07,28.28,378.91,-1375.61,1255.49,-59.92,36.16,126.17,-412,-120,9,0.21,-0.13,-0.47,0.84,151.05,1.28,-58.78,27.58,male1_walking0
294,4521538,974.00,-1743.71,1013.79,8.96,30.18,146.20,-412,-120,9,0.25,-0.10,-0.50,0.82,149.92,-5.02,-61.77,28.29,353.76,-1489.56,1018.74,-118.35,-26.60,249.99,-239,-55,0,0.16,-0.13,-0.60,0.77,155.94,0.62,-76.46,27.59,male1_walking0
295,4521660,669.86,-1553.77,890.32,6.80,13.12,84.48,-239,-55,0,0.19,-0.10,-0.59,0.78,155.50,-3.78,-73.74,28.30,-408.08,-1807.98,738.71,-52.31,-71.91,188.12,-470,-174,40,-0.04,-0.25,-0.57,0.78,165.40,25.97,-75.10,27.59,male1_walking0
296,4521781,-837.95,-2000.00,589.29,15.43,-48.45,18.13,-470,-174,40,-0.01,-0.22,-0.58,0.78,165.73,20.94,-75.64,28.28,-510.62,-1650.70,554.99,24.59,6.48,-24.87,-361,-202,36,0.01,-0.20,-0.58,0.79,165.01,18.34,-75.25,27.59,male1_walking0
297,4521918,260.44,-2000.00,643.37,13.15,45.93,-65.22,-468,-227,92,0.23,-0.01,-0.62,0.75,158.23,-15.51,-76.73,28.29,156.43,-1898.56,1046.88,37.34,66.38,-96.45,-468,-227,92,0.24,-0.02,-0.57,0.79,156.32,-14.11,-68.33,27.59,male1_walking0
298,4521974,1243.96,-1890.44,1074.58,23.77,152.15,-71.77,-468,-227,92,0.29,0.00,-0.53,0.79,151.51,-18.43,-62.93,28.31,94.60,-2000.00,905.46,34.50,-63.64,-64.38,-468,-227,92,0.27,-0.00,-0.52,0.81,153.49,-15.90,-61.82,27.59,male1_walking0
299,4522031,321.29,-1956.36,1007.51,22.63,-16.77,-81.30,-468,-227,92,0.27,-0.00,-0.51,0.82,153.35,-15.74,-60.64,28.29,38.70,-1986.94,916.14,25.94,12.25,-46.25,-441,-210,52,0.26,-0.03,-0.51,0.82,152.52,-12.68,-61.26,27.59,male1_walking0
300,4522086,553.22,-2000.00,1095.83,20.09,-39.16,-72.87,-441,-210,52,0.27,-0.01,-0.52,0.81,152.32,-15.34,-60.94,28.29,-198.97,-1956.85,912.05,11.31,-27.69,-34.23,-441,-210,52,0.23,-0.07,-0.52,0.82,153.04,-7.44,-62.89,27.57,male1_walking0
301,4522167,478.09,-1964.11,971.68,21.86,-23.39,-75.42,-459,-202,13,0.26,-0.04,-0.53,0.80,151.50,-12.14,-63.81,28.30,-202.21,-1956.91,810.06,12.13,-5.96,-45.72,-459,-202,13,0.23,-0.15,-0.55,0.79,148.29,-0.20,-69.16,27.58,male1_walking0
302,4522304,531.74,-1976.20,982.18,10.14,-6.56,-64.99,-300,-222,-3,0.26,-0.11,-0.54,0.80,148.42,-5.80,-66.58,28.29,-105.35,-1997.92,788.45,12.55,-14.00,-53.30,-300,-222,-3,0.25,-0.11,-0.53,0.80,149.00,-4.59,-66.08,27.60,male1_walking0
303,4522361,441.41,-2000.00,976.26,6.35,-37.87,-62.30,-300,-222,-3,0.26,-0.08,-0.53,0.80,149.77,-8.29,-64.89,28.28,-274.17,-1988.16,766.42,14.28,-37.40,-67.78,-300,-222,-3,0.24,-0.10,-0.53,0.81,150.61,-5.92,-65.20,27.59,male1_walking0
304,4522416,255.31,-2000.00,943.05,1.74,-49.58,-62.52,-348,-202,-13,0.25,-0.08,-0.54,0.80,150.55,-8.88,-65.71,28.28,-335.88,-1950.81,696.04,15.32,-13.44,-86.78,-348,-202,-13,0.25,-0.10,-0.54,0.80,149.81,-6.67,-66.71,27.55,male1_walking0
305,4522474,444.40,-2000.00,990.72,-11.76,-21.05,-43.38,-348,-202,-13,0.26,-0.08,-0.55,0.79,149.51,-9.61,-66.45,28.31,-325.44,-2000.00,863.40,16.64,-24.73,-110.28,-348,-202,-13,0.26,-0.09,-0.54,0.80,148.89,-7.82,-66.02,27.58,male1_walking0
306,4522529,-0.73,-2000.00,1025.76,-18.53,-41.90,-15.01,-456,-161,-71,0.27,-0.10,-0.55,0.78,147.53,-8.20,-67.89,28.31,-853.82,-2000.00,658.20,8.65,-3.23,-140.42,-456,-161,-71,0.27,-0.14,-0.56,0.77,144.87,-5.41,-69.96,27.59,male1_walking0
307,4522587,-34.73,-2000.00,211.00,-47.42,3.36,47.18,-456,-161,-71,0.26,-0.17,-0.60,0.74,144.30,-3.59,-76.86,28.29,25.02,-2000.00,723.02,56.81,-6.19,-142.59,-456,-161,-71,0.29,-0.14,-0.59,0.74,142.94,-7.16,-74.09,27.60,male1_walking0
308,4522643,549.01,-2000.00,1140.26,-51.73,19.12,53.54,-456,-161,-71,0.30,-0.14,-0.57,0.75,141.90,-7.84,-72.21,28.30,512.33,-2000.00,1299.87,40.62,116.74,-94.67,-449,-99,-84,0.37,-0.13,-0.54,0.74,135.47,-12.44,-67.26,27.57,male1_walking0
309,4522700,1475.46,-2000.00,990.78,-53.20,29.85,85.95,-449,-99,-84,0.39,-0.11,-0.56,0.72,134.50,-16.55,-68.81,28.26,412.96,-1515.26,1009.28,12.34,-21.80,1.93,-449,-99,-84,0.40,-0.10,-0.54,0.73,133.77,-16.17,-65.59,27.58,male1_walking0
310,4522756,883.24,-1820.92,994.87,-22.57,-21.24,114.48,-449,-99,-84,0.39,-0.10,-0.54,0.74,134.70,-16.10,-66.23,28.30,393.19,-1349.43,1239.44,-45.91,19.40,112.07,-463,-65,-10,0.38,-0.12,-0.51,0.76,134.00,-12.14,-62.62,27.60,male1_walking0
311,4522813,861.76,-1733.95,969.12,7.97,14.21,132.52,-463,-65,-10,0.38,-0.11,-0.52,0.76,134.56,-12.83,-63.05,28.28,379.58,-1435.85,1098.39,-78.31,1.39,199.01,-463,-65,-10,0.36,-0.14,-0.51,0.77,135.71,-8.74,-63.67,27.57,male1_walking0
312,4522869,799.62,-1637.02,967.77,23.41,14.36,127.25,-463,-65,-10,0.37,-0.12,-0.51,0.77,135.77,-10.78,-63.27,28.32,343.87,-1474.98,1115.66,-99.26,-20.88,249.99,-253,-229,-10,0.29,-0.14,-0.49,0.81,142.52,-3.18,-61.58,27.60,male1_walking0
313,4522926,646.24,-1540.34,1016.60,23.55,10.90,84.49,-253,-229,-10,0.28,-0.11,-0.48,0.82,144.84,-4.73,-58.65,28.29,189.39,-1838.38,991.39,-101.97,-55.45,249.99,-253,-229,-10,0.22,-0.14,-0.50,0.83,150.53,0.50,-61.83,27.59,male1_walking0
314,4522982,342.96,-1998.41,899.05,31.23,18.62,84.72,-253,-229,-10,0.21,-0.13,-0.50,0.83,151.27,0.21,-62.04,28.31,-17.27,-2000.00,567.50,-78.94,-73.71,249.99,-253,-229,-10,0.15,-0.15,-0.53,0.82,155.76,4.97,-67.04,27.60,male1_walking0
315,4523037,-471.74,-1932.74,728.70,55.24,5.14,21.48,-392,-325,23,0.14,-0.17,-0.52,0.83,155.86,8.18,-66.00,28.29,-950.87,-1801.57,422.30,-19.82,-17.29,94.54,-392,-325,23,0.10,-0.22,-0.53,0.81,156.45,14.78,-69.28,27.57,male1_walking0
316,4523093,-657.17,-2000.00,591.19,2.47,9.15,23.88,-392,-325,23,0.09,-0.23,-0.54,0.81,155.69,16.07,-70.95,28.31,-269.71,-1772.58,895.32,58.97,85.66,-101.61,-392,-325,23,0.14,-0.22,-0.52,0.81,152.86,11.90,-68.34,27.59,male1_walking0
317,4523149,808.78,-1916.93,1413.57,-45.88,27.36,-44.37,-375,-256,104,0.19,-0.15,-0.52,0.82,153.04,2.70,-64.81,28.29,-165.65,-2000.00,-12.70,9.62,109.95,-48.13,-375,-256,104,0.19,-0.17,-0.55,0.80,150.48,3.79,-69.81,27.59,male1_walking0
318,4523207,741.21,-1986.21,781.86,20.72,36.42,-71.79,-375,-256,104,0.23,-0.11,-0.54,0.80,150.32,-3.86,-66.45,28.28,310.79,-1720.28,1185.24,41.92,61.71,-104.33,-375,-256,104,0.26,-0.09,-0.49,0.83,149.15,-6.25,-59.85,27.57,male1_walking0
319,4523263,1015.32,-1851.56,872.99,27.24,4.47,-73.72,-197,-207,173,0.26,-0.01,-0.46,0.85,153.15,-13.30,-54.05,28.29,9.03,-2000.00,844.30,35.28,-63.52,-62.10,-197,-207,173,0.21,0.00,-0.45,0.87,158.43,-11.45,-52.44,27.57,male1_walking0
320,4523320,276.37,-1880.25,1023.99,22.12,-24.54,-79.67,-197,-207,173,0.19,0.02,-0.43,0.88,161.44,-11.99,-50.62,28.29,26.06,-2000.00,1003.66,26.28,26.87,-46.17,-197,-207,173,0.16,0.01,-0.43,0.89,163.44,-9.12,-50.33,27.59,male1_walking0
321,4523376,587.22,-2000.00,1160.46,22.45,-17.61,-71.33,-197,-207,173,0.16,0.04,-0.43,0.89,165.37,-12.25,-49.59,28.28,-73.30,-2000.00,879.70,10.17,-28.52,-38.09,-253,-229,144,0.14,0.02,-0.45,0.88,166.82,-9.65,-53.47,27.59,male1_walking0
322,4523433,565.67,-1925.60,919.68,17.93,-12.87,-77.59,-253,-229,144,0.15,0.05,-0.47,0.87,167.18,-12.97,-54.99,28.31,-130.43,-1930.24,820.01,16.57,-55.62,-33.99,-253,-229,144,0.12,0.03,-0.48,0.87,169.61,-10.12,-56.92,27.58,male1_walking0
323,4523489,366.46,-1977.54,1004.52,27.25,-61.68,-68.99,-253,-229,144,0.12,0.06,-0.48,0.87,171.33,-12.47,-56.98,28.28,-254.03,-1980.65,948.43,13.82,-40.50,-34.71,-332,-224,92,0.11,0.03,-0.51,0.86,170.75,-9.01,-60.41,27.60,male1_walking0
324,4523545,287.05,-1985.41,1093.63,27.44,-23.85,-79.17,-332,-224,92,0.13,0.03,-0.51,0.85,169.40,-11.00,-60.81,28.30,-424.80,-1976.93,762.21,8.03,-16.20,-44.49,-332,-224,92,0.11,-0.00,-0.53,0.84,168.94,-6.62,-63.49,27.58,male1_walking0
325,4523602,205.38,-2000.00,990.72,9.22,-1.30,-75.84,-332,-224,92,0.13,0.00,-0.53,0.84,167.67,-8.32,-63.55,28.28,-242.31,-2000.00,753.97,13.40,-0.92,-66.40,-385,-202,90,0.13,-0.02,-0.54,0.83,166.47,-6.18,-65.62,27.60,male1_walking0
326,4523658,520.63,-2000.00,894.47,1.30,-15.98,-69.45,-385,-202,90,0.15,0.01,-0.55,0.82,165.82,-10.14,-66.12,28.30,-325.32,-1979.80,637.02,15.22,-32.93,-80.46,-385,-202,90,0.14,-0.02,-0.56,0.82,165.95,-7.43,-67.50,27.57,male1_walking0
327,4523715,293.27,-2000.00,813.78,-9.84,-37.76,-51.34,-385,-202,90,0.14,-0.00,-0.56,0.82,166.41,-9.27,-67.95,28.27,-210.82,-2000.00,722.84,15.84,-10.28,-106.81,-385,-202,90,0.14,-0.01,-0.56,0.82,165.71,-7.99,-67.88,27.57,male1_walking0
328,4523770,211.61,-2000.00,1074.40,-25.13,-35.48,-26.66,-429,-222,94,0.14,-0.01,-0.55,0.82,166.12,-8.37,-66.91,28.28,-581.97,-2000.00,779.79,12.26,-15.74,-134.99,-429,-222,94,0.14,-0.03,-0.55,0.82,165.05,-5.92,-67.17,27.60,male1_walking0
329,4523826,-406.13,-2000.00,985.23,-39.36,-21.78,31.84,-429,-222,94,0.11,-0.07,-0.55,0.82,165.76,-0.63,-67.73,28.31,-233.09,-2000.00,66.96,25.15,46.07,-159.16,-429,-222,94,0.13,-0.07,-0.59,0.79,162.88,-2.27,-72.60,27.59,male1_walking0
330,4523883,394.35,-2000.00,896.00,-36.50,3.17,28.68,-468,-104,92,0.14,-0.06,-0.59,0.80,162.85,-4.03,-72.11,28.30,54.08,-2000.00,1204.16,53.95,53.36,-116.46,-468,-104,92,0.17,-0.05,-0.55,0.81,160.27,-5.92,-67.46,27.59,male1_walking0
331,4523940,931.15,-2000.00,922.36,-51.83,88.17,85.36,-468,-104,92,0.19,-0.05,-0.57,0.80,158.43,-8.03,-69.27,28.29,761.96,-1590.58,1104.74,22.00,59.83,-69.91,-468,-104,92,0.24,-0.02,-0.54,0.81,155.50,-13.07,-65.06,27.57,male1_walking0
332,4523996,1112.49,-2000.00,938.54,-41.19,9.12,114.10,-436,-106,23,0.25,-0.01,-0.57,0.79,155.74,-14.98,-68.32,28.29,521.67,-1353.09,1131.10,-43.57,34.80,84.68,-436,-106,23,0.25,-0.02,-0.55,0.80,154.01,-13.64,-65.75,27.59,male1_walking0
333,4524053,1105.29,-1870.00,821.78,-3.87,4.54,138.20,-436,-106,23,0.25,-0.02,-0.56,0.79,154.87,-15.05,-67.85,28.30,523.62,-1320.56,1004.39,-67.23,-18.72,181.73,-436,-106,23,0.23,-0.03,-0.56,0.80,155.74,-12.05,-67.33,27.58,male1_walking0
334,4524109,1015.63,-1645.20,857.12,18.82,-7.23,141.56,-436,-106,23,0.24,-0.01,-0.56,0.79,156.55,-14.06,-67.43,28.30,535.40,-1374.94,971.80,-104.41,-47.97,249.99,-253,-311,104,0.16,-0.01,-0.54,0.83,164.05,-8.52,-64.84,27.57,male1_walking0
335,4524165,819.09,-1433.59,962.16,8.11,-26.92,107.83,-253,-311,104,0.14,0.03,-0.51,0.85,168.09,-10.57,-60.88,28.28,295.04,-1590.27,1035.71,-126.55,-62.81,249.99,-253,-311,104,0.07,0.01,-0.52,0.85,173.66,-5.10,-63.05,27.58,male1_walking0
336,4524222,583.44,-1671.45,1010.74,26.89,11.92,58.78,-253,-311,104,0.07,0.03,-0.51,0.86,174.49,-6.74,-60.75,28.31,49.87,-2000.00,519.35,-124.22,-80.12,249.99,-470,-325,-3,0.03,-0.01,-0.59,0.80,176.33,-1.50,-72.70,27.58,male1_walking0
337,4524278,-404.30,-1871.09,285.22,46.43,80.05,37.16,-470,-325,-3,0.04,-0.06,-0.61,0.79,172.42,3.07,-76.32,28.30,-1090.64,-1767.46,388.12,-28.76,-72.69,77.57,-470,-325,-3,-0.02,-0.12,-0.63,0.77,173.54,12.03,-79.35,27.57,male1_walking0
338,4524335,-525.70,-2000.00,578.74,-11.28,-101.11,29.78,-470,-325,-3,-0.04,-0.11,-0.63,0.77,175.74,12.52,-79.12,28.31,-408.39,-1798.22,1051.33,57.27,42.94,-122.70,-470,-325,-3,-0.00,-0.09,-0.60,0.79,173.77,8.78,-74.65,27.61,male1_walking0
339,4524392,716.74,-1881.59,1123.41,-37.42,74.89,-20.29,-356,-279,1,0.07,-0.05,-0.60,0.80,170.20,0.08,-73.88,28.27,-166.32,-2000.00,175.17,32.91,85.43,-43.56,-356,-279,1,0.09,-0.08,-0.62,0.78,166.65,0.48,-77.02,27.58,male1_walking0
340,4524448,179.57,-2000.00,498.78,-2.09,79.78,-51.42,-356,-279,1,0.12,-0.07,-0.62,0.77,163.78,-2.12,-77.07,28.28,124.63,-1991.03,1124.02,42.66,65.83,-96.98,-356,-279,1,0.15,-0.06,-0.58,0.80,161.45,-4.52,-71.26,27.60,male1_walking0
341,4524504,914.86,-1810.67,991.76,14.04,117.46,-65.93,-436,-277,90,0.21,-0.03,-0.55,0.81,157.83,-10.93,-66.34,28.28,302.73,-1989.44,882.14,40.57,-38.83,-63.12,-436,-277,90,0.21,-0.01,-0.54,0.82,158.89,-11.75,-64.27,27.60,male1_walking0
342,4524560,299.50,-2000.00,1089.11,19.04,-41.24,-77.10,-436,-277,90,0.21,0.00,-0.52,0.83,159.37,-12.84,-62.27,28.29,-121.89,-1976.07,979.13,18.87,23.09,-51.90,-436,-277,90,0.20,-0.03,-0.51,0.83,158.51,-9.40,-61.62,27.59,male1_walking0
343,4524617,696.35,-2000.00,1028.81,18.63,6.60,-75.32,-427,-268,92,0.23,0.00,-0.51,0.83,157.42,-13.72,-60.96,28.29,66.71,-1973.82,820.07,12.74,-7.12,-35.80,-427,-268,92,0.22,-0.01,-0.52,0.83,157.90,-11.49,-61.85,27.59,male1_walking0
344,4524673,566.10,-1978.94,944.64,19.13,-4.56,-84.25,-427,-268,92,0.23,0.01,-0.52,0.82,157.36,-14.43,-61.41,28.29,-204.77,-1934.88,835.51,13.63,-29.10,-29.18,-427,-268,92,0.21,-0.02,-0.52,0.83,158.51,-10.06,-62.07,27.63,male1_walking0
345,4524729,304.08,-1961.61,916.20,27.90,-16.73,-74.72,-427,-268,92,0.21,-0.01,-0.52,0.83,158.33,-11.51,-61.67,28.28,-326.90,-1909.85,745.79,9.56,-15.48,-32.42,-468,-333,-15,0.20,-0.05,-0.53,0.82,157.26,-7.41,-64.42,27.59,male1_walking0
346,4524786,312.32,-1987.24,1026.31,21.65,-6.36,-67.24,-468,-333,-15,0.22,-0.04,-0.53,0.82,155.60,-9.69,-64.03,28.28,-211.49,-1956.73,771.55,7.99,4.44,-39.96,-468,-333,-15,0.22,-0.07,-0.54,0.81,154.53,-6.66,-65.51,27.59,male1_walking0
347,4524842,505.13,-1978.27,993.96,10.15,2.88,-71.59,-468,-333,-15,0.24,-0.05,-0.54,0.81,153.06,-10.44,-64.90,28.29,-207.89,-2000.00,791.08,6.09,4.57,-51.94,-300,-338,-17,0.22,-0.07,-0.53,0.81,153.88,-6.87,-64.94,27.60,male1_walking0
348,4524898,350.04,-2000.00,905.94,2.72,-15.17,-60.23,-300,-338,-17,0.23,-0.05,-0.53,0.81,154.58,-8.93,-64.48,28.28,-336.61,-1946.47,640.32,8.55,-26.57,-75.88,-300,-338,-17,0.21,-0.07,-0.54,0.81,155.50,-6.11,-65.71,27.58,male1_walking0
349,4524954,350.59,-1998.78,840.88,-8.54,-42.50,-62.21,-300,-338,-17,0.21,-0.05,-0.55,0.81,156.75,-9.04,-66.03,28.28,-229.19,-2000.00,817.87,8.20,-1.67,-93.06,-358,-219,-50,0.23,-0.07,-0.55,0.80,153.90,-8.11,-67.64,27.59,male1_walking0
350,4525010,380.19,-2000.00,1203.13,-19.00,-18.33,-45.36,-358,-219,-50,0.25,-0.06,-0.55,0.79,152.34,-10.37,-66.83,28.27,-476.99,-2000.00,868.41,3.32,-14.60,-116.77,-358,-219,-50,0.25,-0.09,-0.55,0.79,150.36,-7.81,-67.34,27.57,male1_walking0
351,4525068,-175.84,-2000.00,995.18,-24.44,-31.58,-8.68,-358,-219,-50,0.24,-0.11,-0.55,0.79,150.12,-5.27,-67.76,28.30,-682.37,-2000.00,243.59,10.25,25.70,-161.82,-358,-219,-50,0.25,-0.14,-0.57,0.77,147.22,-3.34,-71.95,27.57,male1_walking0
352,4525124,305.66,-2000.00,525.33,-42.02,-9.86,39.93,-414,-173,-62,0.25,-0.14,-0.60,0.75,146.85,-4.87,-75.66,28.28,107.60,-2000.00,956.79,65.90,20.94,-135.64,-414,-173,-62,0.28,-0.12,-0.57,0.76,144.79,-7.94,-71.52,27.58,male1_walking0
353,4525181,983.83,-2000.00,913.33,-40.95,57.94,64.39,-414,-173,-62,0.31,-0.11,-0.58,0.75,143.03,-10.67,-71.52,28.28,427.31,-1862.18,1184.45,49.59,71.69,-84.14,-414,-173,-62,0.35,-0.10,-0.54,0.76,139.41,-12.53,-65.78,27.56,male1_walking0
354,4525237,930.24,-2000.00,1049.13,-40.65,33.94,134.73,-385,-61,-71,0.36,-0.11,-0.55,0.74,137.94,-13.55,-68.07,28.28,633.85,-1397.40,1046.57,-25.58,89.06,45.24,-385,-61,-71,0.39,-0.11,-0.54,0.74,134.06,-14.72,-65.75,27.58,male1_walking0
355,4525293,1246.09,-1816.04,765.20,7.19,2.43,129.68,-385,-61,-71,0.40,-0.10,-0.55,0.72,134.53,-17.59,-67.39,28.27,494.26,-1279.85,1032.47,-10.85,-47.55,158.79,-385,-61,-71,0.38,-0.10,-0.53,0.75,135.48,-14.86,-64.95,27.56,male1_walking0
356,4525350,841.61,-1657.90,914.67,32.42,-44.79,141.31,-464,-118,-15,0.36,-0.09,-0.53,0.76,138.41,-14.20,-63.53,28.28,344.79,-1457.21,978.52,-52.98,-37.48,242.14,-464,-118,-15,0.32,-0.12,-0.52,0.78,141.28,-8.59,-64.25,27.56,male1_walking0
357,4525407,763.55,-1567.93,943.42,37.72,18.74,123.31,-464,-118,-15,0.33,-0.10,-0.52,0.78,141.17,-10.32,-63.01,28.29,382.14,-1522.09,1031.80,-102.65,7.77,249.99,-464,-118,-15,0.29,-0.14,-0.52,0.79,142.80,-5.47,-65.53,27.58,male1_walking0
358,4525464,701.17,-1515.81,1101.50,34.14,13.16,70.31,-464,-118,-15,0.32,-0.11,-0.51,0.79,141.79,-9.21,-62.93,28.28,256.96,-1936.71,1045.78,-114.01,-62.39,249.99,-214,-337,-15,0.22,-0.12,-0.52,0.82,151.12,-2.15,-64.40,27.59,male1_walking0
359,4525520,317.44,-2000.00,719.42,26.70,18.13,78.94,-214,-337,-15,0.20,-0.11,-0.52,0.83,154.33,-1.18,-64.03,28.27,-110.41,-1712.10,533.63,-64.66,-119.77,219.51,-214,-337,-15,0.12,-0.12,-0.54,0.83,161.48,4.29,-67.05,27.58,male1_walking0
360,4525577,-1247.92,-2000.00,768.07,30.23,-81.57,24.54,-214,-337,-15,0.06,-0.16,-0.53,0.83,164.36,11.55,-66.29,28.26,-822.57,-1704.96,455.69,21.20,-20.21,-21.15,-429,-335,-10,0.06,-0.18,-0.55,0.81,161.85,13.31,-70.34,27.58,male1_walking0
361,4525633,-67.38,-1759.16,1123.72,-18.33,-27.45,9.84,-429,-335,-10,0.09,-0.15,-0.54,0.82,162.00,9.28,-68.73,28.31,-179.02,-2000.00,936.10,41.84,98.04,-72.40,-429,-335,-10,0.13,-0.16,-0.54,0.82,157.51,6.46,-68.54,27.59,male1_walking0
362,4525690,239.50,-2000.00,720.95,-11.09,102.42,-48.44,-429,-335,-10,0.18,-0.15,-0.56,0.80,153.21,2.02,-70.56,28.31,380.49,-2000.00,159.91,25.38,118.64,-84.02,-387,-227,-35,0.24,-0.15,-0.59,0.76,147.99,-3.45,-75.14,27.60,male1_walking0
363,4525746,718.87,-1972.66,1128.54,-7.48,-11.25,-74.10,-387,-227,-35,0.27,-0.10,-0.57,0.77,147.78,-9.41,-70.97,28.28,115.36,-1620.48,1369.93,44.78,-2.83,-79.48,-387,-227,-35,0.29,-0.08,-0.52,0.80,146.61,-9.75,-63.66,27.59,male1_walking0
364,4525803,647.03,-2000.00,1173.40,14.02,-68.50,-64.51,-387,-227,-35,0.30,-0.05,-0.52,0.79,146.99,-14.34,-62.60,28.30,-392.46,-2000.00,849.24,21.49,-47.76,-69.57,-387,-227,-35,0.29,-0.08,-0.52,0.80,147.30,-10.31,-63.51,27.58,male1_walking0
365,4525860,387.82,-1875.92,1047.61,36.42,-102.71,-65.79,-466,-202,-13,0.29,-0.04,-0.53,0.80,148.35,-14.08,-62.74,28.29,180.05,-2000.00,912.05,19.93,14.50,-45.87,-466,-202,-13,0.30,-0.06,-0.53,0.79,146.98,-12.94,-63.35,27.58,male1_walking0
366,4525916,578.31,-1982.73,977.66,10.12,-42.82,-74.30,-466,-202,-13,0.31,-0.04,-0.54,0.78,146.63,-16.30,-63.76,28.28,-137.15,-1989.69,912.66,4.94,-38.48,-40.76,-466,-202,-13,0.30,-0.06,-0.53,0.79,147.02,-12.51,-64.45,27.59,male1_walking0
367,4525973,456.60,-1958.98,1037.23,18.22,-15.90,-78.63,-251,-200,1,0.30,-0.04,-0.52,0.80,147.94,-13.97,-61.89,28.26,-213.01,-1969.06,860.53,5.68,-21.30,-30.41,-251,-200,1,0.27,-0.07,-0.52,0.81,149.44,-9.61,-62.26,27.58,male1_walking0
368,4526029,326.66,-1930.30,1049.19,29.08,-37.81,-82.31,-251,-200,1,0.27,-0.05,-0.51,0.82,150.01,-11.64,-60.61,28.31,-432.25,-1940.31,763.24,8.31,-13.69,-36.79,-251,-200,1,0.25,-0.09,-0.51,0.82,150.76,-6.38,-62.20,27.58,male1_walking0
369,4526085,138.43,-1961.18,954.16,17.27,11.02,-77.81,-302,-196,-79,0.28,-0.09,-0.52,0.80,146.64,-8.65,-63.62,28.29,-344.24,-1919.86,792.79,13.39,6.81,-54.70,-302,-196,-79,0.28,-0.12,-0.52,0.79,144.58,-5.83,-65.01,27.58,male1_walking0
370,4526142,512.76,-2000.00,992.74,6.29,9.16,-78.67,-302,-196,-79,0.32,-0.10,-0.53,0.78,142.10,-10.47,-65.00,28.28,-191.96,-2000.00,811.65,13.95,-4.30,-69.51,-302,-196,-79,0.32,-0.12,-0.53,0.78,141.20,-8.24,-65.51,27.58,male1_walking0
371,4526197,323.91,-2000.00,985.35,-0.64,-25.65,-66.81,-302,-196,-79,0.33,-0.11,-0.53,0.77,140.69,-10.43,-65.20,28.28,-424.26,-2000.00,608.76,18.05,-15.54,-90.90,-354,-174,-71,0.32,-0.14,-0.54,0.77,139.75,-7.32,-67.25,27.60,male1_walking0
372,4526255,231.45,-2000.00,879.21,-20.89,-20.67,-37.13,-354,-174,-71,0.33,-0.14,-0.54,0.76,139.38,-8.54,-67.98,28.27,-293.46,-2000.00,645.81,26.89,-16.24,-126.98,-354,-174,-71,0.33,-0.15,-0.54,0.76,138.42,-7.63,-68.41,27.58,male1_walking0
373,4526313,-58.41,-2000.00,916.14,-27.04,-49.89,-1.72,-354,-174,-71,0.31,-0.16,-0.54,0.76,139.50,-5.67,-68.58,28.28,-655.64,-2000.00,653.50,19.68,-10.14,-163.93,-415,-113,-67,0.33,-0.18,-0.55,0.75,136.73,-5.24,-70.15,27.60,male1_walking0
374,4526370,104.00,-2000.00,352.42,-60.61,-13.62,35.10,-415,-113,-67,0.32,-0.20,-0.58,0.72,136.76,-4.95,-75.65,28.29,-145.32,-1994.93,1037.23,41.11,-18.33,-154.59,-415,-113,-67,0.34,-0.17,-0.56,0.74,135.47,-7.37,-71.38,27.61,male1_walking0
375,4526426,684.20,-2000.00,1387.15,-67.13,31.95,45.00,-415,-113,-67,0.36,-0.16,-0.55,0.74,133.88,-8.96,-69.34,28.28,729.06,-2000.00,1478.70,15.06,118.16,-120.18,-442,-85,-74,0.43,-0.14,-0.52,0.72,127.23,-14.53,-64.25,27.58,male1_walking0
376,4526483,1422.42,-2000.00,1018.49,-66.12,66.34,87.04,-442,-85,-74,0.45,-0.14,-0.54,0.70,126.20,-16.79,-65.91,28.27,420.17,-1367.49,1093.81,-44.93,23.94,12.37,-442,-85,-74,0.45,-0.14,-0.51,0.72,124.83,-15.36,-63.05,27.59,male1_walking0
377,4526539,950.74,-1799.68,1010.99,-33.74,19.37,99.79,-442,-85,-74,0.45,-0.14,-0.52,0.72,125.42,-15.34,-63.70,28.29,344.67,-1394.65,1203.80,-85.08,9.60,97.04,-442,-85,-74,0.44,-0.16,-0.50,0.73,125.26,-11.84,-62.43,27.58,male1_walking0
378,4526595,788.94,-1703.61,1092.22,-12.63,61.54,117.64,-461,-104,52,0.43,-0.17,-0.48,0.75,125.89,-9.35,-60.14,28.31,286.87,-1498.60,1176.27,-142.00,25.88,185.20,-461,-104,52,0.39,-0.20,-0.47,0.76,127.79,-3.82,-61.49,27.61,male1_walking0
379,4526652,745.67,-1670.96,1067.26,-10.39,97.34,107.51,-461,-104,52,0.41,-0.20,-0.47,0.76,126.69,-4.57,-60.62,28.30,362.92,-1652.28,1180.73,-182.50,52.55,233.67,-461,-104,52,0.37,-0.23,-0.48,0.76,128.33,0.12,-63.99,27.59,male1_walking0
380,4526709,759.70,-1803.04,873.72,-34.71,98.46,76.64,-466,-68,-87,0.42,-0.22,-0.50,0.72,123.90,-5.97,-66.59,28.29,357.73,-1897.52,844.67,-187.08,31.01,249.99,-466,-68,-87,0.39,-0.26,-0.53,0.71,124.60,-2.08,-72.13,27.60,male1_walking0
381,4526764,523.44,-1953.00,362.61,-12.25,114.65,71.17,-466,-68,-87,0.41,-0.28,-0.55,0.68,120.98,-4.45,-75.34,28.28,263.00,-1979.55,702.15,-100.91,58.71,230.73,-466,-68,-87,0.39,-0.31,-0.54,0.68,120.61,0.60,-77.03,27.59,male1_walking0
382,4526822,152.28,-1879.33,693.18,17.27,130.49,20.53,-332,-56,-99,0.43,-0.32,-0.52,0.67,115.81,-0.92,-74.90,28.28,-764.65,-1803.59,746.34,-31.67,14.98,112.63,-332,-56,-99,0.39,-0.36,-0.49,0.69,115.57,6.77,-74.46,27.60,male1_walking0
383,4526878,-562.38,-1879.88,876.34,1.84,2.35,42.34,-332,-56,-99,0.40,-0.37,-0.46,0.70,114.59,8.13,-72.36,28.30,-64.88,-1623.90,960.75,44.93,96.76,-60.19,-332,-56,-99,0.46,-0.34,-0.45,0.69,110.22,3.42,-68.55,27.60,male1_walking0
384,4526933,1394.47,-1567.38,1000.31,6.58,112.03,-63.14,-332,-56,-99,0.54,-0.28,-0.47,0.63,105.07,-9.14,-66.30,28.30,-541.87,-2000.00,300.17,45.39,80.70,6.34,-321,37,-17,0.52,-0.34,-0.46,0.63,102.82,-2.63,-69.37,27.59,male1_walking0
385,4526990,200.81,-2000.00,-367.13,29.00,87.98,-43.37,-321,37,-17,0.53,-0.37,-0.50,0.58,99.67,-6.29,-76.49,28.29,536.68,-2000.00,232.73,61.36,19.43,-55.83,-321,37,-17,0.55,-0.35,-0.52,0.55,98.72,-10.82,-76.60,27.60,male1_walking0
386,4527045,1107.42,-1847.78,972.35,22.80,-79.67,-48.65,-321,37,-17,0.58,-0.28,-0.53,0.55,99.86,-17.62,-72.60,28.31,-294.80,-1929.44,1086.98,39.37,-59.23,-34.54,-346,-90,11,0.55,-0.29,-0.45,0.65,103.84,-6.76,-64.03,27.59,male1_walking0
387,4527102,159.24,-1952.51,1037.17,15.16,56.75,-47.61,-346,-90,11,0.54,-0.29,-0.42,0.67,103.78,-3.44,-61.21,28.28,-473.45,-1976.68,752.01,23.83,35.75,-23.46,-346,-90,11,0.52,-0.33,-0.39,0.68,104.21,2.98,-61.60,27.60,male1_walking0
388,4527158,299.07,-2000.00,1041.20,18.54,55.07,-40.73,-346,-90,11,0.53,-0.32,-0.39,0.68,103.00,0.99,-60.92,28.27,-226.01,-2000.00,797.73,22.60,63.30,-17.47,-346,-90,11,0.52,-0.35,-0.38,0.68,102.27,4.44,-61.71,27.59,male1_walking0
389,4527214,394.78,-1990.54,928.47,15.35,63.11,-52.28,-388,-48,-10,0.56,-0.33,-0.40,0.65,99.24,-1.23,-62.49,28.29,-104.13,-1980.59,659.06,11.44,57.37,-19.67,-388,-48,-10,0.55,-0.35,-0.40,0.64,98.24,0.71,-64.24,27.58,male1_walking0
390,4527269,517.82,-1955.44,829.83,6.03,42.21,-43.34,-388,-48,-10,0.57,-0.34,-0.42,0.62,96.91,-3.41,-64.74,28.29,-302.37,-1918.88,621.64,6.34,37.97,-17.74,-412,98,-104,0.60,-0.38,-0.41,0.57,89.74,-3.13,-67.60,27.59,male1_walking0
391,4527352,292.11,-2000.00,927.55,5.56,70.79,-46.33,-412,98,-104,0.64,-0.37,-0.41,0.54,85.21,-7.25,-66.04,28.29,-321.53,-1920.23,687.19,7.61,61.58,-22.06,-412,98,-104,0.64,-0.40,-0.38,0.54,82.78,-3.65,-66.71,27.61,male1_walking0
392,4527407,345.95,-2000.00,1000.79,-3.53,66.67,-43.07,-412,98,-104,0.67,-0.38,-0.38,0.51,79.36,-6.72,-65.38,28.27,-138.79,-1985.72,817.14,3.18,54.70,-35.61,-388,208,-30,0.70,-0.39,-0.36,0.48,74.66,-7.57,-63.87,27.60,male1_walking0
393,4527463,586.98,-1949.83,973.45,-8.35,43.25,-45.10,-388,208,-30,0.73,-0.36,-0.37,0.44,70.33,-13.08,-62.12,28.27,-96.37,-1931.52,713.44,-1.72,28.47,-40.60,-388,208,-30,0.73,-0.39,-0.36,0.43,68.44,-10.84,-63.38,27.58,male1_walking0
394,4527519,539.67,-1924.44,866.52,-16.98,23.45,-39.48,-388,208,-30,0.74,-0.38,-0.37,0.40,66.01,-14.18,-63.41,28.25,-80.26,-1924.87,731.20,-4.51,21.35,-42.23,-388,208,-30,0.74,-0.40,-0.35,0.40,64.73,-11.34,-64.52,27.59,male1_walking0
395,4527576,503.23,-1935.36,951.97,-24.16,21.22,-30.10,-464,295,-55,0.76,-0.40,-0.36,0.38,61.78,-14.26,-63.57,28.26,-147.46,-1991.39,754.03,-7.28,18.58,-52.37,-464,295,-55,0.76,-0.42,-0.34,0.37,60.24,-11.48,-64.50,27.59,male1_walking0
396,4527632,309.02,-2000.00,1057.86,-38.69,23.33,-20.44,-464,295,-55,0.77,-0.42,-0.33,0.36,57.99,-11.79,-63.91,28.28,-377.01,-2000.00,864.62,-21.07,24.45,-72.88,-464,295,-55,0.76,-0.44,-0.30,0.36,55.86,-8.35,-64.42,27.59,male1_walking0
397,4527688,216.74,-2000.00,1015.32,-50.44,24.47,-9.84,-361,317,-71,0.78,-0.44,-0.29,0.33,52.03,-9.27,-63.64,28.27,-298.03,-2000.00,584.84,-33.55,42.44,-102.99,-361,317,-71,0.78,-0.47,-0.27,0.31,48.61,-7.96,-65.66,27.57,male1_walking0
398,4527745,76.35,-2000.00,827.70,-70.36,45.96,15.31,-361,317,-71,0.78,-0.49,-0.26,0.30,45.94,-6.34,-67.04,28.29,-479.80,-2000.00,752.14,-35.16,60.16,-124.44,-361,317,-71,0.79,-0.51,-0.23,0.27,41.76,-4.61,-67.38,27.62,male1_walking0
399,4527801,56.40,-2000.00,1148.25,-68.82,100.96,18.36,-464,319,-82,0.79,-0.52,-0.20,0.27,38.96,-1.89,-67.13,28.26,112.12,-2000.00,1213.01,-51.70,126.70,-110.77,-464,319,-82,0.80,-0.51,-0.19,0.23,34.84,-3.34,-66.23,27.60,male1_walking0
400,4527857,668.64,-2000.00,1492.00,-77.77,148.99,43.33,-464,319,-82,0.81,-0.51,-0.17,0.22,32.17,-3.18,-65.47,28.26,67.38,-1989.75,1681.82,-80.40,221.86,-95.58,-464,319,-82,0.83,-0.51,-0.13,0.19,26.70,-1.66,-64.21,27.59,male1_walking0
401,4527914,719.30,-2000.00,1681.46,-71.98,229.55,91.89,-464,319,-82,0.83,-0.52,-0.10,0.18,24.14,0.93,-64.10,28.27,381.23,-1632.63,1707.58,-144.63,203.16,-38.13,-412,324,-13,0.84,-0.52,-0.09,0.14,19.51,0.10,-63.46,27.59,male1_walking0
402,4527970,999.57,-2000.00,1425.42,-29.33,193.26,100.88,-412,324,-13,0.84,-0.52,-0.08,0.13,17.64,-0.33,-63.47,28.28,289.18,-1547.97,1722.23,-144.70,156.11,58.75,-412,324,-13,0.84,-0.52,-0.06,0.13,16.43,1.99,-63.45,27.59,male1_walking0
403,4528026,827.88,-1996.77,1443.05,-3.10,198.68,118.40,-412,324,-13,0.84,-0.52,-0.05,0.12,15.13,2.58,-63.00,28.27,249.88,-1627.50,1794.80,-175.13,172.66,90.13,-409,355,-121,0.83,-0.54,-0.03,0.15,16.70,6.16,-65.02,27.59,male1_walking0
404,4528082,830.08,-1951.17,1390.50,11.63,246.35,139.25,-409,355,-121,0.83,-0.54,-0.02,0.15,16.18,6.82,-64.57,28.27,631.29,-1634.34,1479.13,-193.63,210.40,177.19,-409,355,-121,0.80,-0.57,-0.02,0.17,17.76,9.51,-69.30,27.59,male1_walking0
405,4528150,1068.18,-1968.26,669.56,25.69,186.71,116.49,-409,355,-121,0.80,-0.58,-0.05,0.14,16.78,5.49,-71.32,28.30,673.52,-1522.22,1188.42,-132.74,84.63,242.61,-327,324,-313,0.78,-0.59,-0.07,0.21,25.09,7.79,-72.19,27.59,male1_walking0
406,4528206,947.20,-1590.09,800.84,43.32,80.59,81.67,-327,324,-313,0.79,-0.56,-0.13,0.22,29.49,2.33,-70.74,28.29,223.33,-1759.95,1066.04,-85.38,-4.49,249.99,-327,324,-313,0.76,-0.57,-0.13,0.29,36.52,7.47,-70.85,27.60,male1_walking0
407,4528261,335.69,-1927.00,871.28,60.35,68.82,65.51,-327,324,-313,0.77,-0.54,-0.15,0.30,38.73,5.83,-68.54,28.26,-186.83,-1940.86,701.60,-80.78,25.78,227.41,-327,324,-313,0.73,-0.57,-0.13,0.35,42.74,12.13,-71.31,27.59,male1_walking0
408,4528318,-644.59,-2000.00,639.83,35.03,-19.81,-22.72,-470,-113,-553,0.67,-0.57,-0.15,0.44,53.84,18.05,-71.80,28.29,-357.60,-1667.42,631.71,24.77,134.51,12.35,-470,-113,-553,0.64,-0.58,-0.15,0.48,57.97,21.17,-72.50,27.58,male1_walking0
409,4528374,-142.82,-1684.75,1083.98,-9.62,85.06,-10.89,-470,-113,-553,0.63,-0.56,-0.18,0.51,64.03,20.23,-70.12,28.28,-276.86,-1986.08,865.91,62.57,66.35,-72.57,-470,-113,-553,0.63,-0.54,-0.20,0.53,67.92,17.97,-68.88,27.61,male1_walking0
410,4528431,-732.30,-2000.00,232.42,40.57,82.17,-11.28,-470,-113,-553,0.59,-0.56,-0.21,0.54,69.97,21.43,-72.72,28.28,43.40,-2000.00,138.85,54.11,77.69,-67.20,-354,-116,-556,0.58,-0.56,-0.27,0.52,71.83,16.03,-76.65,27.60,male1_walking0
411,4528488,1296.63,-1879.76,988.28,-6.65,-28.78,-51.25,-354,-116,-556,0.60,-0.49,-0.36,0.52,78.20,4.53,-74.37,28.27,-76.97,-1659.06,1525.51,51.06,-36.35,-74.16,-354,-116,-556,0.61,-0.42,-0.35,0.57,84.25,2.83,-65.95,27.59,male1_walking0
412,4528544,442.93,-2000.00,1318.91,21.19,94.81,-70.03,-354,-116,-556,0.63,-0.38,-0.36,0.57,85.32,-1.15,-62.86,28.27,-48.71,-1900.21,709.47,27.00,60.59,-53.62,-293,-75,-556,0.62,-0.38,-0.37,0.58,86.44,-0.97,-63.93,27.57,male1_walking0
413,4528601,762.88,-1979.43,848.27,29.90,28.82,-64.38,-293,-75,-556,0.63,-0.34,-0.40,0.56,87.87,-7.27,-63.95,28.29,125.12,-2000.00,827.45,28.59,-8.47,-37.65,-293,-75,-556,0.62,-0.34,-0.41,0.57,90.23,-7.17,-64.11,27.58,male1_walking0
414,4528656,442.20,-1955.51,1059.33,21.65,-39.83,-71.16,-293,-75,-556,0.62,-0.30,-0.43,0.58,92.29,-10.74,-62.82,28.29,-192.99,-1990.36,818.30,21.00,-10.96,-30.93,-238,-111,-551,0.60,-0.32,-0.42,0.60,94.49,-7.42,-63.57,27.60,male1_walking0
415,4528714,541.14,-1968.87,898.86,25.47,12.79,-75.67,-238,-111,-551,0.61,-0.29,-0.44,0.59,94.86,-11.10,-63.26,28.30,-215.03,-1964.97,832.95,23.84,-9.70,-29.26,-238,-111,-551,0.59,-0.31,-0.43,0.61,96.25,-7.56,-63.63,27.60,male1_walking0
416,4528770,309.45,-1961.91,1029.05,36.42,10.68,-75.00,-238,-111,-551,0.60,-0.29,-0.43,0.61,96.07,-9.56,-62.07,28.26,-243.41,-1952.76,758.54,21.18,4.01,-36.37,-238,-111,-551,0.59,-0.31,-0.42,0.62,96.79,-6.09,-63.27,27.59,male1_walking0
417,4528826,375.49,-1946.66,924.74,23.23,-0.03,-72.42,-456,-58,-543,0.60,-0.30,-0.43,0.60,95.69,-9.28,-62.85,28.29,-132.57,-1948.67,858.22,25.03,-4.33,-48.89,-456,-58,-543,0.60,-0.31,-0.42,0.61,95.68,-7.11,-63.01,27.60,male1_walking0
418,4528882,709.17,-2000.00,1041.20,18.28,-21.45,-61.81,-456,-58,-543,0.61,-0.28,-0.44,0.59,95.61,-11.98,-62.33,28.27,-51.39,-2000.00,850.04,22.38,-34.97,-56.66,-456,-58,-543,0.60,-0.29,-0.44,0.60,96.48,-10.10,-63.02,27.60,male1_walking0
419,4528939,378.48,-2000.00,1010.80,15.98,-46.53,-54.97,-449,-65,-526,0.60,-0.28,-0.45,0.60,97.44,-11.96,-62.69,28.29,-411.44,-1903.56,689.70,22.83,-44.78,-72.58,-449,-65,-526,0.58,-0.30,-0.44,0.61,98.17,-8.24,-64.04,27.60,male1_walking0
420,4528995,279.48,-2000.00,981.99,-0.64,-34.03,-54.96,-449,-65,-526,0.59,-0.29,-0.45,0.61,98.25,-9.84,-64.04,28.29,-239.87,-2000.00,761.90,29.78,-11.11,-99.40,-449,-65,-526,0.59,-0.31,-0.44,0.61,97.53,-8.02,-64.50,27.59,male1_walking0
421,4529051,147.16,-2000.00,994.32,-3.85,-46.73,-20.30,-358,-31,-543,0.59,-0.31,-0.44,0.61,97.47,-8.03,-64.48,28.27,-666.69,-2000.00,689.51,26.16,-36.15,-136.76,-358,-31,-543,0.58,-0.33,-0.43,0.61,96.11,-5.36,-65.38,27.60,male1_walking0
422,4529108,-542.36,-2000.00,993.77,-30.83,-49.72,48.84,-358,-31,-543,0.55,-0.36,-0.40,0.63,97.22,0.60,-65.98,28.24,-273.44,-2000.00,7.08,35.66,37.38,-148.18,-358,-31,-543,0.56,-0.39,-0.43,0.59,93.48,-1.02,-71.23,27.60,male1_walking0
423,4529165,718.26,-2000.00,1094.06,-41.64,0.21,40.57,-324,-31,-553,0.58,-0.37,-0.44,0.58,93.69,-4.88,-69.67,28.30,374.51,-2000.00,1322.02,52.84,72.75,-102.97,-324,-31,-553,0.62,-0.33,-0.42,0.57,90.58,-7.78,-64.57,27.60,male1_walking0
424,4529221,1171.02,-2000.00,1053.65,-63.55,53.70,87.42,-324,-31,-553,0.62,-0.33,-0.44,0.56,91.09,-10.39,-65.80,28.30,635.86,-1515.50,1099.49,9.31,23.51,-43.43,-324,-31,-553,0.64,-0.29,-0.43,0.56,90.15,-13.47,-62.28,27.60,male1_walking0
425,4529277,939.45,-1936.95,1094.18,-36.95,-12.44,108.32,-324,-31,-553,0.63,-0.29,-0.45,0.57,92.75,-13.51,-63.25,28.29,274.29,-1445.25,1266.85,-53.70,31.68,93.90,-246,9,-556,0.63,-0.30,-0.41,0.58,91.07,-9.06,-60.71,27.60,male1_walking0
426,4529335,885.07,-1885.56,1150.82,-5.61,17.30,136.29,-246,9,-556,0.63,-0.30,-0.41,0.59,91.69,-8.98,-60.55,28.27,366.76,-1417.54,1285.64,-88.06,2.58,149.60,-246,9,-556,0.62,-0.31,-0.39,0.61,92.24,-5.85,-59.82,27.59,male1_walking0
427,4529389,796.75,-1710.14,1129.94,5.36,40.79,137.05,-246,9,-556,0.62,-0.31,-0.39,0.61,92.09,-6.12,-58.87,28.28,344.18,-1461.79,1193.36,-123.28,1.61,228.78,-470,321,-556,0.63,-0.34,-0.37,0.59,88.50,-3.05,-60.29,27.60,male1_walking0
428,4529445,771.18,-1595.28,1023.56,11.41,57.85,97.95,-470,321,-556,0.67,-0.34,-0.36,0.55,82.37,-6.15,-58.74,28.29,365.23,-1532.65,1026.31,-138.84,7.87,249.99,-470,321,-556,0.66,-0.38,-0.35,0.55,81.57,-2.44,-62.00,27.58,male1_walking0
429,4529501,591.25,-1550.35,817.81,9.61,72.37,62.99,-470,321,-556,0.69,-0.38,-0.35,0.51,76.19,-5.34,-61.32,28.28,163.57,-1873.17,794.62,-112.01,-16.23,249.99,-470,324,-789,0.65,-0.43,-0.34,0.53,78.32,0.64,-66.29,27.60,male1_walking0
430,4529557,-5.86,-2000.00,339.11,33.89,90.74,36.95,-470,324,-789,0.65,-0.46,-0.33,0.50,74.38,2.08,-69.10,28.28,-300.72,-1847.53,548.58,-57.95,7.04,168.71,-470,324,-789,0.62,-0.50,-0.31,0.52,74.48,7.90,-71.75,27.60,male1_walking0
431,4529613,-608.03,-2000.00,555.91,15.97,-33.99,-2.57,-470,324,-789,0.62,-0.51,-0.29,0.52,73.71,9.78,-71.87,28.28,-403.50,-1704.16,713.62,25.40,14.84,-32.06,-470,324,-789,0.63,-0.50,-0.28,0.52,71.93,9.62,-69.96,27.61,male1_walking0
432,4529671,130.92,-2000.00,1084.41,6.09,-57.28,0.12,-246,-34,-799,0.62,-0.45,-0.33,0.55,79.79,4.93,-67.30,28.28,-327.15,-2000.00,147.64,35.80,-3.33,-38.28,-246,-34,-799,0.60,-0.46,-0.35,0.55,82.41,4.92,-70.88,27.59,male1_walking0
433,4529725,-224.06,-2000.00,615.66,2.17,-50.96,-34.55,-246,-34,-799,0.58,-0.44,-0.38,0.57,86.52,3.75,-71.31,28.28,46.39,-2000.00,1075.62,52.94,55.83,-105.57,-246,-34,-799,0.61,-0.41,-0.38,0.57,85.90,0.23,-67.58,27.60,male1_walking0
434,4529782,1051.45,-1799.99,1229.37,-11.15,163.48,-67.02,-470,328,-813,0.70,-0.38,-0.37,0.48,74.53,-8.18,-63.52,28.28,231.57,-1988.40,758.24,46.64,-64.43,-60.39,-470,328,-813,0.70,-0.37,-0.38,0.48,74.78,-9.92,-63.86,27.58,male1_walking0
435,4529839,126.34,-2000.00,833.44,16.02,-37.29,-74.91,-470,328,-813,0.70,-0.38,-0.38,0.47,74.11,-10.54,-64.40,28.28,-372.80,-1863.22,901.92,24.33,46.50,-46.67,-470,328,-813,0.70,-0.40,-0.34,0.48,71.84,-5.63,-63.43,27.60,male1_walking0
436,4529895,562.07,-1982.73,986.39,19.86,71.41,-65.83,-415,328,-556,0.74,-0.39,-0.34,0.43,66.97,-9.36,-62.28,28.28,-54.63,-2000.00,819.95,25.37,-6.71,-42.96,-415,328,-556,0.73,-0.40,-0.33,0.44,66.62,-7.70,-62.97,27.59,male1_walking0
437,4529951,430.97,-1992.55,960.02,21.72,5.42,-68.83,-415,328,-556,0.74,-0.39,-0.34,0.42,65.36,-10.46,-62.53,28.26,-183.90,-1962.71,855.10,22.93,-8.87,-38.77,-415,328,-556,0.73,-0.41,-0.33,0.43,65.53,-7.40,-62.96,27.61,male1_walking0
438,4530007,432.19,-1995.85,1011.35,20.45,-10.42,-63.64,-415,328,-556,0.74,-0.39,-0.34,0.42,65.01,-10.24,-62.33,28.28,-202.27,-1965.21,817.63,21.76,-20.00,-42.04,-470,345,-826,0.73,-0.41,-0.33,0.44,66.79,-7.07,-63.17,27.59,male1_walking0
439,4530064,390.26,-1951.23,982.97,24.70,-14.57,-58.55,-470,345,-826,0.73,-0.39,-0.35,0.44,67.49,-9.51,-62.50,28.26,-152.04,-1945.31,822.81,16.97,-6.73,-43.49,-470,345,-826,0.72,-0.41,-0.34,0.45,68.17,-6.91,-63.25,27.58,male1_walking0
440,4530120,546.39,-1931.70,1005.62,15.72,4.68,-69.34,-470,345,-826,0.73,-0.39,-0.35,0.43,67.80,-10.58,-62.50,28.27,-43.64,-1938.72,827.51,13.03,2.21,-45.62,-361,345,-553,0.73,-0.40,-0.34,0.43,66.14,-8.46,-63.26,27.60,male1_walking0
441,4530176,575.56,-1974.37,995.18,16.65,-9.81,-69.07,-361,345,-553,0.75,-0.39,-0.35,0.41,64.76,-12.05,-62.63,28.28,-159.55,-2000.00,819.76,14.61,-19.05,-55.79,-361,345,-553,0.74,-0.41,-0.34,0.41,64.58,-9.39,-63.56,27.61,male1_walking0
442,4530233,293.88,-2000.00,995.06,9.00,-39.05,-66.54,-361,345,-553,0.74,-0.40,-0.35,0.41,64.47,-11.14,-63.30,28.29,-446.29,-1961.49,683.72,17.46,-22.40,-74.04,-459,352,-539,0.73,-0.43,-0.33,0.42,64.75,-6.86,-64.87,27.60,male1_walking0
443,4530290,341.25,-2000.00,978.45,-4.04,-23.20,-57.42,-459,352,-539,0.74,-0.42,-0.34,0.41,64.59,-9.14,-64.71,28.29,-298.34,-2000.00,858.28,20.50,-16.40,-103.81,-459,352,-539,0.73,-0.42,-0.33,0.42,64.04,-7.29,-64.62,27.59,male1_walking0
444,4530346,33.14,-2000.00,1061.04,-7.87,-39.76,-30.37,-459,352,-539,0.73,-0.42,-0.33,0.43,64.81,-6.66,-64.20,28.29,-725.10,-2000.00,636.47,16.05,-10.51,-141.11,-459,352,-539,0.72,-0.45,-0.31,0.43,63.54,-3.55,-65.73,27.60,male1_walking0
445,4530402,-418.03,-2000.00,656.62,-40.80,-30.25,54.25,-466,358,-519,0.69,-0.48,-0.29,0.45,64.73,1.82,-68.77,28.30,-156.37,-2000.00,556.82,34.32,16.97,-152.82,-466,358,-519,0.71,-0.48,-0.30,0.42,61.89,-1.35,-69.21,27.62,male1_walking0
446,4530458,585.33,-2000.00,1127.56,-54.12,6.36,40.18,-466,358,-519,0.72,-0.47,-0.31,0.41,62.01,-3.90,-68.39,28.30,326.17,-2000.00,1278.20,42.03,95.90,-103.42,-466,358,-519,0.76,-0.44,-0.30,0.38,58.16,-6.61,-63.74,27.59,male1_walking0
447,4530514,1070.01,-2000.00,955.99,-60.02,65.86,86.81,-468,73,-555,0.72,-0.43,-0.33,0.42,64.81,-6.92,-66.13,28.28,681.27,-1485.60,1191.83,20.10,39.32,-55.70,-468,73,-555,0.73,-0.39,-0.35,0.44,67.93,-9.98,-62.08,27.60,male1_walking0
448,4530571,899.66,-1994.81,1155.46,-35.37,0.48,105.85,-468,73,-555,0.70,-0.37,-0.37,0.48,74.21,-9.27,-62.94,28.28,202.58,-1485.05,1263.37,-59.19,46.56,79.40,-468,73,-555,0.69,-0.37,-0.34,0.51,76.61,-5.26,-61.01,27.60,male1_walking0
449,4530627,875.37,-1886.35,1147.58,-4.07,41.89,141.05,-145,98,-819,0.68,-0.36,-0.35,0.53,78.79,-6.21,-60.50,28.26,404.05,-1415.47,1310.06,-92.52,19.29,143.68,-145,98,-819,0.68,-0.36,-0.35,0.54,80.36,-4.36,-59.63,27.60,male1_walking0
450,4530683,846.80,-1744.93,1072.94,8.06,48.74,140.62,-145,98,-819,0.67,-0.35,-0.35,0.55,81.42,-5.36,-59.13,28.28,394.90,-1446.53,1149.17,-124.76,-2.56,229.93,-145,98,-819,0.65,-0.37,-0.35,0.57,84.14,-2.02,-60.65,27.60,male1_walking0
451,4530739,835.21,-1560.06,908.69,8.71,60.45,102.10,-145,98,-819,0.66,-0.35,-0.36,0.56,83.55,-4.92,-60.18,28.29,464.48,-1455.08,999.21,-143.22,7.84,249.99,-468,405,-932,0.64,-0.39,-0.35,0.56,82.53,-1.34,-63.40,27.60,male1_walking0
452,4530795,834.11,-1512.33,738.22,-0.40,66.01,62.15,-468,405,-932,0.68,-0.38,-0.36,0.51,77.97,-5.59,-63.38,28.29,407.65,-1929.93,806.21,-115.07,-36.07,249.99,-468,405,-932,0.64,-0.42,-0.36,0.52,79.45,-1.49,-67.96,27.61,male1_walking0
453,4530852,203.98,-2000.00,519.90,37.41,58.07,50.67,-468,405,-932,0.66,-0.44,-0.35,0.50,75.42,-0.93,-68.95,28.29,-390.87,-1818.60,711.36,-52.67,-93.83,179.72,-361,375,-880,0.62,-0.48,-0.33,0.53,77.56,6.08,-70.33,27.59,male1_walking0
454,4530908,-955.75,-2000.00,464.05,20.61,-117.74,14.63,-361,375,-880,0.60,-0.50,-0.31,0.55,78.04,10.49,-71.11,28.28,-563.66,-1757.14,705.51,44.49,-14.80,-79.81,-361,375,-880,0.62,-0.49,-0.29,0.54,75.23,10.04,-69.12,27.60,male1_walking0
455,4530965,589.84,-1940.25,1117.61,-3.15,-62.13,-9.15,-361,375,-880,0.66,-0.44,-0.32,0.52,75.12,1.99,-66.48,28.28,-517.70,-2000.00,178.83,21.04,93.53,-58.18,-337,317,-880,0.65,-0.49,-0.31,0.49,70.76,4.91,-71.11,27.62,male1_walking0
456,4531021,323.55,-2000.00,780.58,-6.85,71.02,-56.63,-337,317,-880,0.67,-0.48,-0.32,0.46,68.61,0.46,-70.79,28.28,335.57,-1900.33,1151.79,44.53,49.17,-109.34,-337,317,-880,0.71,-0.44,-0.33,0.44,66.88,-4.59,-66.15,27.62,male1_walking0
457,4531077,1135.50,-1781.01,964.11,24.31,100.37,-55.84,-337,317,-880,0.74,-0.40,-0.36,0.40,64.43,-12.10,-63.84,28.29,124.02,-2000.00,693.97,35.41,-92.26,-70.49,-337,317,-880,0.73,-0.39,-0.37,0.42,67.96,-12.54,-65.08,27.59,male1_walking0
458,4531134,137.27,-1906.98,957.46,25.00,-97.01,-82.82,-253,454,-961,0.73,-0.38,-0.38,0.42,68.30,-13.32,-64.17,28.27,-185.79,-1885.19,979.68,23.52,58.59,-42.28,-253,454,-961,0.74,-0.40,-0.33,0.42,65.17,-8.77,-62.82,27.61,male1_walking0
459,4531189,576.97,-2000.00,1045.17,19.33,25.12,-66.19,-253,454,-961,0.76,-0.39,-0.34,0.40,63.13,-11.75,-61.87,28.30,-93.44,-2000.00,840.21,15.80,-18.23,-45.30,-253,454,-961,0.75,-0.41,-0.33,0.41,63.28,-9.30,-62.88,27.61,male1_walking0
460,4531246,521.79,-1965.58,1035.71,18.93,5.07,-76.70,-456,317,-978,0.75,-0.38,-0.35,0.41,65.17,-12.50,-61.97,28.28,-179.26,-1966.61,849.73,17.85,-16.81,-35.96,-456,317,-978,0.73,-0.39,-0.34,0.44,67.42,-9.17,-62.66,27.58,male1_walking0
461,4531303,351.62,-1992.37,980.83,26.18,-23.42,-71.22,-456,317,-978,0.73,-0.38,-0.36,0.44,68.96,-11.32,-62.19,28.27,-310.06,-1952.39,787.17,15.95,-27.11,-44.84,-456,317,-978,0.71,-0.40,-0.35,0.46,70.51,-7.58,-63.31,27.60,male1_walking0
462,4531359,278.56,-1952.15,987.06,27.55,-11.79,-74.56,-436,352,-880,0.73,-0.38,-0.35,0.45,69.79,-9.69,-62.32,28.26,-193.05,-1940.25,806.09,14.90,4.11,-50.59,-436,352,-880,0.72,-0.40,-0.34,0.46,69.48,-7.00,-63.17,27.61,male1_walking0
463,4531415,640.93,-1946.84,1032.29,8.66,5.68,-74.91,-436,352,-880,0.73,-0.38,-0.36,0.43,68.55,-11.58,-62.45,28.29,-70.98,-2000.00,885.74,10.11,-3.74,-56.02,-436,352,-880,0.73,-0.39,-0.35,0.44,68.68,-9.37,-63.07,27.61,male1_walking0
464,4531472,380.43,-2000.00,1009.52,0.62,-28.28,-63.10,-436,352,-880,0.73,-0.38,-0.36,0.44,69.16,-11.44,-63.10,28.27,-477.23,-1906.07,719.12,10.48,-39.05,-76.58,-348,324,-873,0.71,-0.41,-0.35,0.45,69.80,-7.21,-64.52,27.59,male1_walking0
465,4531528,185.91,-2000.00,888.55,-7.32,-43.65,-65.22,-348,324,-873,0.71,-0.40,-0.36,0.45,70.46,-8.70,-65.18,28.27,-349.06,-2000.00,736.76,14.19,-4.23,-102.62,-348,324,-873,0.71,-0.42,-0.35,0.45,69.70,-6.52,-65.89,27.59,male1_walking0
466,4531584,246.46,-2000.00,1109.68,-22.80,-18.92,-31.87,-348,324,-873,0.71,-0.41,-0.35,0.45,70.04,-7.52,-65.12,28.26,-604.80,-2000.00,751.10,13.40,-6.33,-136.26,-434,326,-879,0.70,-0.43,-0.33,0.46,69.17,-4.23,-65.87,27.60,male1_walking0
467,4531644,-419.68,-2000.00,787.48,-33.30,-31.40,41.76,-434,326,-879,0.68,-0.46,-0.32,0.48,71.09,0.58,-67.53,28.28,-285.34,-2000.00,118.16,34.66,21.99,-154.35,-434,326,-879,0.67,-0.48,-0.34,0.45,69.08,-1.12,-71.69,27.60,male1_walking0
468,4531700,591.80,-2000.00,918.58,-38.82,-20.04,39.05,-434,326,-879,0.68,-0.46,-0.36,0.45,70.67,-4.09,-71.15,28.28,350.71,-2000.00,1226.26,58.95,52.06,-107.09,-145,321,-836,0.72,-0.42,-0.34,0.43,67.03,-7.86,-65.27,27.60,male1_walking0
469,4531756,1130.07,-2000.00,1041.26,-49.62,50.33,77.77,-145,321,-836,0.73,-0.41,-0.36,0.42,66.64,-10.34,-65.87,28.28,469.06,-1613.59,1031.01,16.40,37.12,-36.90,-145,321,-836,0.75,-0.39,-0.35,0.41,64.84,-11.85,-62.76,27.60,male1_walking0
470,4531814,896.97,-1931.21,1044.62,-31.51,-2.01,112.90,-145,321,-836,0.74,-0.39,-0.36,0.42,66.67,-11.99,-63.67,28.31,328.25,-1412.11,1284.85,-44.78,43.04,87.15,-145,321,-836,0.74,-0.39,-0.33,0.43,65.76,-8.92,-60.70,27.59,male1_walking0
471,4531870,924.68,-1861.82,1072.57,5.99,24.32,135.49,-239,324,-907,0.74,-0.38,-0.34,0.45,68.05,-9.45,-60.49,28.30,376.40,-1430.36,1201.72,-80.91,19.61,167.42,-239,324,-907,0.73,-0.39,-0.32,0.47,69.43,-6.05,-60.14,27.59,male1_walking0
472,4531926,876.34,-1712.77,1083.56,21.31,45.04,133.67,-239,324,-907,0.73,-0.37,-0.32,0.47,70.09,-7.00,-58.95,28.25,425.90,-1464.36,1129.15,-123.16,-2.05,249.64,-239,324,-907,0.70,-0.39,-0.32,0.50,72.84,-2.94,-60.83,27.63,male1_walking0
473,4531983,813.72,-1546.45,941.59,15.57,44.69,85.10,-456,427,-880,0.72,-0.38,-0.33,0.48,70.89,-6.51,-59.66,28.28,303.77,-1686.58,961.91,-132.71,-14.15,249.99,-456,427,-880,0.69,-0.41,-0.32,0.50,73.12,-1.92,-63.43,27.60,male1_walking0
474,4532040,529.24,-1859.13,760.07,22.19,46.02,72.97,-456,427,-880,0.70,-0.42,-0.33,0.48,71.14,-3.15,-63.95,28.25,141.17,-1968.87,686.16,-86.10,-77.99,249.99,-456,427,-880,0.65,-0.45,-0.33,0.51,74.74,1.83,-68.24,27.62,male1_walking0
475,4532095,-138.61,-1760.01,409.36,78.40,-9.85,33.70,-402,348,-880,0.65,-0.46,-0.32,0.51,73.95,3.43,-68.46,28.31,-917.48,-1733.95,698.67,-13.03,-158.55,123.88,-402,348,-880,0.61,-0.48,-0.29,0.56,77.75,10.38,-68.25,27.63,male1_walking0
476,4532152,-750.98,-2000.00,728.76,43.96,-162.16,28.21,-402,348,-880,0.60,-0.47,-0.28,0.58,80.18,11.99,-66.62,28.28,-431.82,-1745.06,767.03,56.15,60.44,-108.98,-402,348,-880,0.64,-0.47,-0.27,0.54,74.55,10.27,-65.40,27.60,male1_walking0
477,4532207,869.38,-2000.00,1081.18,-61.83,66.77,-41.02,-402,348,-880,0.68,-0.45,-0.31,0.49,71.15,1.17,-66.49,28.28,61.95,-2000.00,305.05,15.38,186.55,-78.41,-463,317,-873,0.69,-0.49,-0.31,0.44,65.68,0.31,-70.26,27.61,male1_walking0
478,4532264,836.91,-1899.17,1348.33,-0.76,81.68,-78.01,-463,317,-873,0.73,-0.44,-0.33,0.42,64.24,-6.47,-66.20,28.28,438.54,-1690.86,1359.19,40.64,63.60,-86.43,-463,317,-873,0.75,-0.39,-0.32,0.42,63.44,-9.16,-60.86,27.63,male1_walking0
479,4532321,1252.87,-1955.51,1098.14,26.12,-19.24,-81.66,-463,317,-873,0.76,-0.35,-0.38,0.40,65.32,-17.24,-60.13,28.28,-182.01,-2000.00,818.85,19.29,-101.72,-72.42,-466,345,-981,0.74,-0.36,-0.38,0.43,69.26,-14.33,-62.15,27.64,male1_walking0
480,4532378,309.57,-1838.13,1190.92,31.09,-205.10,-84.25,-466,345,-981,0.73,-0.32,-0.40,0.45,73.84,-17.29,-60.98,28.27,48.65,-1997.62,903.75,21.22,38.25,-37.88,-466,345,-981,0.73,-0.35,-0.38,0.46,72.25,-13.17,-61.37,27.62,male1_walking0
481,4532433,484.68,-2000.00,1002.81,15.21,12.17,-72.48,-466,345,-981,0.73,-0.35,-0.38,0.44,71.11,-14.50,-61.20,28.28,-195.80,-1982.24,903.14,13.14,-22.58,-40.28,-466,345,-981,0.72,-0.37,-0.36,0.46,71.71,-10.39,-62.07,27.61,male1_walking0
482,4532490,420.41,-1948.00,978.33,14.99,9.27,-70.79,-470,345,-880,0.73,-0.36,-0.37,0.45,70.44,-12.26,-61.76,28.28,-121.22,-1978.33,783.45,16.43,-10.40,-36.15,-470,345,-880,0.72,-0.39,-0.36,0.46,70.83,-9.28,-63.03,27.62,male1_walking0
483,4532546,379.09,-1956.73,988.28,27.97,-28.73,-68.66,-470,345,-880,0.73,-0.37,-0.37,0.45,70.85,-11.71,-62.21,28.28,-328.31,-1942.32,857.97,16.56,-23.19,-42.81,-470,345,-880,0.71,-0.39,-0.35,0.47,71.21,-7.80,-62.82,27.61,male1_walking0
484,4532603,368.29,-1956.05,1012.94,21.42,-10.07,-71.95,-375,386,-877,0.73,-0.38,-0.36,0.45,69.34,-10.46,-61.95,28.25,-130.86,-1933.35,796.45,14.62,-6.50,-52.48,-375,386,-877,0.72,-0.40,-0.34,0.45,68.64,-8.12,-63.00,27.60,male1_walking0
485,4532660,589.23,-1947.88,1029.60,8.43,-14.27,-67.83,-375,386,-877,0.74,-0.38,-0.36,0.43,67.82,-11.99,-62.44,28.25,-56.03,-2000.00,832.95,12.79,-9.53,-56.33,-375,386,-877,0.73,-0.40,-0.35,0.43,67.57,-9.80,-63.39,27.61,male1_walking0
486,4532716,311.22,-2000.00,1001.77,4.68,-36.54,-64.64,-251,435,-879,0.74,-0.39,-0.36,0.42,66.35,-11.38,-63.31,28.28,-440.98,-1988.28,763.85,13.31,-36.25,-77.80,-251,435,-879,0.73,-0.42,-0.34,0.43,65.69,-7.77,-64.47,27.59,male1_walking0
487,4532772,245.91,-2000.00,962.22,-6.60,-43.00,-63.45,-251,435,-879,0.73,-0.41,-0.35,0.42,65.40,-9.52,-64.68,28.29,-324.58,-2000.00,763.73,16.32,-19.19,-103.83,-251,435,-879,0.73,-0.43,-0.33,0.42,64.32,-7.42,-65.36,27.61,male1_walking0
488,4532829,114.99,-2000.00,1085.27,-16.75,-36.80,-32.12,-251,435,-879,0.73,-0.42,-0.33,0.42,64.60,-7.40,-64.80,28.31,-758.61,-2000.00,665.10,16.31,-17.27,-134.42,-463,321,-877,0.71,-0.44,-0.32,0.44,65.79,-3.64,-66.00,27.63,male1_walking0
489,4532885,-397.52,-2000.00,827.76,-36.75,-32.84,51.52,-463,321,-877,0.68,-0.46,-0.31,0.48,68.97,1.40,-67.49,28.28,276.86,-2000.00,703.67,74.59,-31.07,-142.03,-463,321,-877,0.72,-0.40,-0.37,0.43,68.77,-11.19,-65.40,27.62,male1_walking0
490,4532968,723.82,-2000.00,953.86,-48.45,5.98,62.64,-470,468,-853,0.72,-0.41,-0.38,0.42,68.42,-11.59,-66.63,28.25,717.83,-1812.44,1141.11,34.42,87.29,-76.05,-470,468,-853,0.75,-0.38,-0.36,0.39,64.16,-14.36,-62.70,27.62,male1_walking0
491,4533024,1344.12,-2000.00,869.87,-48.37,11.26,93.74,-470,468,-853,0.74,-0.38,-0.39,0.39,65.93,-16.74,-65.47,28.28,387.63,-1457.03,1067.69,8.89,-15.22,31.48,-470,468,-853,0.75,-0.37,-0.37,0.40,65.97,-14.94,-62.23,27.61,male1_walking0
492,4533080,895.32,-1797.36,989.01,-6.30,-13.38,123.01,-354,345,-873,0.74,-0.36,-0.38,0.42,68.97,-14.43,-62.64,28.27,378.05,-1377.99,1157.96,-50.25,20.84,141.81,-354,345,-873,0.73,-0.37,-0.35,0.45,69.59,-10.23,-60.91,27.63,male1_walking0
493,4533137,975.16,-1703.19,973.88,16.77,20.02,143.42,-354,345,-873,0.73,-0.36,-0.36,0.46,70.99,-10.95,-60.52,28.29,489.99,-1372.44,1098.14,-80.05,-18.72,226.42,-354,345,-873,0.71,-0.37,-0.34,0.49,73.44,-7.15,-60.87,27.60,male1_walking0
494,4533192,873.78,-1548.89,1014.83,29.74,5.45,121.44,-354,345,-873,0.72,-0.35,-0.35,0.49,73.68,-9.08,-59.18,28.28,342.96,-1493.53,1060.55,-102.38,-34.80,249.99,-461,319,-858,0.68,-0.38,-0.34,0.52,77.30,-3.89,-61.38,27.62,male1_walking0
495,4533249,683.17,-1497.86,921.87,21.26,14.75,80.92,-461,319,-858,0.70,-0.36,-0.35,0.51,76.44,-6.59,-60.00,28.31,367.74,-1910.71,912.23,-98.14,-77.24,249.99,-461,319,-858,0.66,-0.39,-0.36,0.53,80.17,-2.82,-64.07,27.62,male1_walking0
496,4533306,374.27,-1896.06,596.56,37.84,-27.52,84.94,-461,319,-858,0.66,-0.40,-0.36,0.53,79.78,-3.36,-65.45,28.30,-17.70,-1856.69,815.43,-36.60,-133.40,216.98,-470,-65,-813,0.59,-0.40,-0.37,0.60,89.49,2.38,-66.55,27.62,male1_walking0
497,4533362,-1202.33,-2000.00,906.80,66.09,-92.39,10.63,-470,-65,-813,0.55,-0.41,-0.34,0.64,93.08,8.62,-64.33,28.27,-811.16,-1700.20,380.80,24.60,-1.79,-22.93,-470,-65,-813,0.53,-0.45,-0.33,0.64,92.36,12.46,-67.04,27.60,male1_walking0
498,4533418,-121.40,-1745.24,1097.35,-11.04,-36.26,-0.43,-470,-65,-813,0.54,-0.41,-0.34,0.64,93.89,9.46,-64.56,28.28,-286.80,-2000.00,1018.19,46.36,145.81,-89.51,-429,-31,-819,0.58,-0.42,-0.32,0.62,88.41,8.38,-63.48,27.61,male1_walking0
499,4533475,209.17,-2000.00,505.92,-37.64,209.19,-45.54,-429,-31,-819,0.60,-0.45,-0.34,0.57,82.97,5.78,-68.82,28.28,323.97,-2000.00,679.26,45.53,84.70,-102.96,-429,-31,-819,0.62,-0.43,-0.37,0.54,81.89,0.15,-68.58,27.60,male1_walking0
500,4533531,1166.38,-1727.66,806.82,6.87,-4.82,-74.41,-429,-31,-819,0.65,-0.36,-0.43,0.51,83.97,-10.26,-67.87,28.28,481.32,-1703.67,1246.52,50.70,-42.85,-78.35,-429,-31,-819,0.66,-0.31,-0.43,0.53,85.91,-13.37,-62.87,27.61,male1_walking0
501,4533587,627.75,-2000.00,1067.14,14.90,-61.36,-72.14,-466,-51,-833,0.66,-0.28,-0.45,0.54,89.00,-16.89,-62.35,28.29,-327.82,-1947.88,862.79,17.33,-20.84,-65.27,-466,-51,-833,0.64,-0.30,-0.43,0.56,90.11,-12.21,-62.80,27.62,male1_walking0
502,4533643,491.27,-1927.86,983.58,21.08,-26.60,-67.62,-466,-51,-833,0.64,-0.28,-0.44,0.56,90.93,-14.49,-62.20,28.28,-13.79,-2000.00,902.16,20.80,-2.35,-43.55,-466,-51,-833,0.63,-0.30,-0.43,0.57,91.36,-11.61,-62.50,27.61,male1_walking0
503,4533701,480.71,-1983.52,1061.95,17.99,-11.13,-75.75,-361,317,-880,0.67,-0.31,-0.42,0.53,84.27,-13.71,-61.42,28.28,-87.71,-1942.57,901.00,16.46,-18.35,-43.02,-361,317,-880,0.68,-0.34,-0.39,0.52,80.89,-10.70,-62.05,27.62,male1_walking0
504,4533756,449.04,-1991.33,943.18,19.32,-16.24,-72.20,-361,317,-880,0.70,-0.34,-0.40,0.49,77.61,-12.87,-62.10,28.27,-190.43,-1978.09,837.46,18.01,-21.00,-38.30,-361,317,-880,0.70,-0.37,-0.37,0.49,76.12,-9.28,-63.04,27.60,male1_walking0
505,4533813,385.62,-1923.28,1042.72,27.52,-24.60,-68.01,-249,317,-826,0.72,-0.36,-0.37,0.47,73.32,-11.51,-61.67,28.28,-183.29,-1935.49,872.19,16.06,-10.09,-41.21,-249,317,-826,0.71,-0.38,-0.35,0.47,71.88,-8.22,-62.37,27.61,male1_walking0
506,4533869,443.12,-1935.67,1051.57,21.26,-5.18,-79.15,-249,317,-826,0.73,-0.37,-0.36,0.45,69.84,-11.16,-61.34,28.28,-125.12,-1973.02,906.49,14.69,-4.04,-50.63,-249,317,-826,0.73,-0.39,-0.34,0.45,68.99,-8.59,-61.96,27.60,male1_walking0
507,4533926,540.10,-2000.00,1066.22,11.38,-20.39,-66.61,-249,317,-826,0.74,-0.37,-0.36,0.43,68.37,-12.10,-61.55,28.26,-320.01,-1991.03,819.95,15.89,-42.71,-65.03,-170,322,-858,0.73,-0.39,-0.34,0.44,68.33,-8.72,-62.85,27.62,male1_walking0
