,timestamp,top_accel_x,top_accel_y,top_accel_z,top_mag_x,top_mag_y,top_mag_z,top_gy_x,top_gy_y,top_gy_z,top_q0,top_qx,top_qy,top_qz,top_yaw,top_pitch,top_roll,top_temperature,bottom_accel_x,bottom_accel_y,bottom_accel_z,bottom_mag_x,bottom_mag_y,bottom_mag_z,bottom_gy_x,bottom_gy_y,bottom_gy_z,bottom_q0,bottom_qx,bottom_qy,bottom_qz,bottom_yaw,bottom_pitch,bottom_roll,bottom_temperature,action
0,6195378,841.13,-1573.85,798.46,6.13,115.91,64.93,-251,-227,119,0.2,-0.07,-0.47,0.85,156.17,-4.43,-57.04,29.16,471.19,-1625.92,627.32,-90.59,27.57,249.99,-251,-227,119,0.14,-0.08,-0.5,0.85,161.37,-0.58,-60.71,28.25,walking
1,6195439,326.11,-1818.97,746.03,-15.31,64.29,43.32,-388,-226,-87,0.21,-0.1,-0.55,0.8,153.95,-4.29,-67.91,29.14,-114.75,-2000,673.83,-62.59,24.51,249.99,-388,-226,-87,0.17,-0.15,-0.57,0.79,153.54,2.61,-72.55,28.27,walking
2,6195496,-287.54,-1879.88,672,29.24,51.9,26.94,-388,-226,-87,0.19,-0.18,-0.57,0.78,150.33,4.03,-73.08,29.16,-380.43,-1578.92,525.82,-3.91,-97.23,84.4,-388,-226,-87,0.16,-0.19,-0.57,0.78,151.89,6.57,-74.04,28.26,walking
3,6195553,-125.61,-1889.89,736.69,39.99,-169.43,45.85,-353,-118,-123,0.18,-0.15,-0.59,0.77,153.11,1.04,-74.59,29.16,-193.24,-1697.57,758.42,43.23,-145.9,-92.08,-353,-118,-123,0.21,-0.12,-0.59,0.77,152.87,-4.05,-74.37,28.26,walking
4,6195609,149.54,-1835.14,1356.57,49.81,-105.2,-16.73,-353,-118,-123,0.24,-0.08,-0.57,0.78,151.9,-8.29,-70.27,29.17,-1038.76,-2000,538.57,0.09,40.31,0.5,-353,-118,-123,0.23,-0.16,-0.58,0.76,147.57,-1.83,-74.21,28.26,walking
5,6195665,-877.99,-2000,327.64,29.71,120.16,-13.23,-353,-118,-123,0.25,-0.23,-0.58,0.74,140.99,3.04,-77.8,29.15,-169.74,-2000,505.98,29.37,134.45,-94.76,-449,-263,-125,0.29,-0.24,-0.57,0.73,136.25,1.44,-76.75,28.28,walking
6,6195722,1030.64,-1758.91,1045.78,22.35,58.3,-47.26,-449,-263,-125,0.35,-0.18,-0.56,0.73,134.43,-6.95,-71.79,29.16,498.78,-1651.92,1004.52,45.16,-59.45,-75.19,-449,-263,-125,0.37,-0.13,-0.54,0.75,135.63,-11.28,-66.52,28.25,walking
7,6195780,496.52,-2000,1287.48,27.24,-118.4,-49.46,-449,-263,-125,0.36,-0.09,-0.52,0.77,138.23,-14.01,-63.25,29.17,-252.93,-2000,891.6,8.21,-49.05,-67.34,-449,-253,-125,0.35,-0.11,-0.52,0.77,138.48,-10.74,-64.09,28.28,walking
8,6195837,431.4,-1999.39,1030.46,23.28,2.87,-58.24,-449,-253,-125,0.36,-0.11,-0.52,0.77,137.1,-12.47,-63.16,29.18,23.8,-1969.91,697.51,18.01,11.09,-42.59,-449,-253,-125,0.36,-0.13,-0.52,0.76,136.48,-10.33,-64.66,28.29,walking
9,6195893,349.67,-1971.8,1172,26.53,-18.92,-58.11,-449,-253,-125,0.37,-0.11,-0.51,0.77,135.85,-11.66,-62.38,29.14,-300.78,-1931.82,817.02,11.41,-26.29,-38.81,-456,-229,-118,0.35,-0.15,-0.51,0.77,135.77,-7.51,-63.81,28.26,walking
10,6195950,282.41,-1926.76,1040.34,28.67,-30.71,-53.3,-456,-229,-118,0.37,-0.13,-0.51,0.77,135.17,-9.55,-62.79,29.15,-189.88,-2000,771.67,12.5,-16.49,-37.98,-456,-229,-118,0.36,-0.16,-0.51,0.77,134.9,-7.05,-64.38,28.3,walking
11,6196007,301.45,-1991.39,1091.13,28.18,-12.81,-63.29,-456,-229,-118,0.37,-0.14,-0.51,0.76,133.8,-9.37,-62.86,29.16,-218.57,-1940.12,792.97,9.51,-3.65,-38.96,-299,-227,-109,0.35,-0.16,-0.5,0.77,134.52,-5.75,-63.59,28.25,walking
12,6196064,317.38,-1934.33,1047.18,37.25,-1.37,-72,-299,-227,-109,0.37,-0.15,-0.49,0.77,134.12,-7.98,-61.72,29.13,-233.4,-1965.09,758.18,12.14,2.24,-45.71,-299,-227,-109,0.35,-0.17,-0.5,0.78,134.33,-4.88,-63.1,28.25,walking
13,6196120,123.54,-2000,1040.89,21.43,-48.45,-61.69,-299,-227,-109,0.35,-0.15,-0.49,0.78,135.26,-6.45,-62.13,29.16,-560.49,-1920.96,748.11,9.42,-9.53,-68.89,-299,-227,-109,0.34,-0.18,-0.49,0.78,135.07,-2.49,-63.43,28.25,walking
14,6196176,98.02,-2000,1051.51,7.62,-34.95,-47.87,-361,-215,-121,0.35,-0.17,-0.5,0.77,134.4,-4.8,-63.34,29.14,-480.1,-2000,606.02,6.92,-9.21,-96.78,-361,-215,-121,0.35,-0.2,-0.51,0.76,133.2,-3.01,-65.74,28.28,walking
15,6196234,7.51,-2000,927.43,-9.14,-14.89,-28.22,-361,-215,-121,0.35,-0.2,-0.51,0.76,132.99,-3.28,-65.97,29.16,-569.34,-2000,400.63,8.03,-22.19,-138.24,-361,-215,-121,0.35,-0.22,-0.52,0.75,132.03,-2.08,-69.07,28.23,walking
16,6196290,-300.35,-2000,717.16,-28.8,-71.88,17.08,-388,-174,36,0.3,-0.23,-0.51,0.77,135.62,2.31,-68.34,29.15,-595.76,-2000,108.46,24.03,-43.24,-185.65,-388,-174,36,0.3,-0.23,-0.53,0.75,135.29,1.78,-71.42,28.28,walking
17,6196346,329.71,-2000,856.99,-90.97,-80.81,48.42,-388,-174,36,0.28,-0.21,-0.54,0.76,138.94,0.47,-71.17,29.16,519.29,-2000,1095.64,43.35,-35.87,-118.99,-388,-174,36,0.32,-0.15,-0.53,0.77,139.38,-5.81,-66.36,28.26,walking
18,6196403,629.09,-2000,1294.31,-78.61,-41.08,76.73,-446,-120,43,0.31,-0.13,-0.53,0.78,141.16,-6.86,-66.21,29.14,667.85,-1943.79,1058.23,-1.05,48.72,-26.68,-446,-120,43,0.34,-0.12,-0.53,0.77,139.4,-9.79,-64.8,28.28,walking
19,6196459,946.78,-2000,1133,-58.4,67.69,104.49,-446,-120,43,0.34,-0.12,-0.53,0.77,138.87,-9.65,-64.98,29.17,372.68,-1558.96,986.63,-32.2,37.17,82.41,-446,-120,43,0.33,-0.13,-0.51,0.78,138.77,-7.36,-63.57,28.27,walking
20,6196514,942.63,-1962.46,962.65,-15.08,52.08,132.13,-446,-120,43,0.33,-0.13,-0.52,0.78,139.06,-7.93,-64.25,29.16,516.3,-1418.27,705.38,-65.15,-4.95,152.82,-415,-167,43,0.31,-0.13,-0.52,0.78,141.68,-6.27,-65.21,28.27,walking
21,6196571,852.42,-1632.08,846.07,-3.47,50.88,123.96,-415,-167,43,0.31,-0.12,-0.52,0.79,142.2,-7.21,-64.04,29.17,419.92,-1293.64,810.61,-80.91,-16.59,243.64,-415,-167,43,0.27,-0.13,-0.52,0.8,145.57,-3.38,-64.51,28.25,walking
22,6196628,815.73,-1429.44,994.26,11.68,68.3,67.95,-415,-167,43,0.29,-0.11,-0.5,0.8,144.28,-7.11,-61.81,29.18,462.46,-1510.99,880.74,-86.15,3.78,249.99,-222,-219,104,0.22,-0.11,-0.48,0.84,151.64,-1.55,-59.54,28.26,walking
23,6196684,578.25,-1661.19,925.96,4.66,63.22,19.97,-222,-219,104,0.22,-0.09,-0.47,0.85,153.18,-3.47,-56.8,29.16,-127.14,-2000,615.72,-104.01,20.26,249.99,-222,-219,104,0.14,-0.13,-0.5,0.85,158.87,5.14,-61.74,28.27,walking
24,6196741,-248.41,-2000,281.68,-8.68,163.74,18.68,-222,-219,104,0.13,-0.18,-0.52,0.83,156.21,8.98,-65.9,29.16,-625.06,-1446.59,509.95,-22.21,-28.33,121.56,-222,-219,104,0.07,-0.2,-0.5,0.84,160.55,15.84,-64.23,28.26,walking
25,6196797,-424.26,-1955.81,689.51,27.92,-69.04,16.49,-414,-118,-92,0.14,-0.17,-0.55,0.8,155.15,6.94,-70.38,29.15,-182.56,-1637.27,906.56,46.94,-29.53,-112.92,-414,-118,-92,0.21,-0.14,-0.56,0.79,151.46,-0.55,-70.37,28.25,walking
26,6196853,976.2,-2000,1098.27,30.88,-59.54,-53.53,-414,-118,-92,0.27,-0.07,-0.58,0.77,149.41,-12.05,-70.55,29.16,-802,-1958.19,288.09,17.16,60.78,-9.77,-414,-118,-92,0.26,-0.15,-0.59,0.75,146.14,-4.68,-74.99,28.26,walking
27,6196910,-356.93,-2000,781.25,18.65,26.89,-13.98,-463,-89,-125,0.27,-0.17,-0.58,0.74,142.69,-3.62,-75.1,29.16,5.49,-2000,443.79,39.88,121.89,-93.3,-463,-89,-125,0.32,-0.18,-0.59,0.72,137.05,-6.69,-76.27,28.25,walking
28,6196966,882.87,-1589.72,1233.95,32.17,26.47,-53.73,-463,-89,-125,0.39,-0.13,-0.57,0.72,133.47,-15.04,-70.09,29.14,262.21,-1769.65,969.36,38.06,-11.73,-69.11,-463,-89,-125,0.41,-0.12,-0.55,0.72,131.61,-15.79,-67.37,28.27,walking
29,6197022,456.85,-2000,1121.15,34.66,-36.8,-57.93,-415,-85,-77,0.42,-0.11,-0.53,0.73,130.98,-16.96,-64.71,29.15,-239.69,-1997.38,773.25,16.69,-0.63,-59.04,-415,-85,-77,0.41,-0.14,-0.53,0.73,130.07,-12.69,-65.7,28.24,walking
30,6197079,418.82,-1945.62,1113.83,22.06,6.81,-52.76,-415,-85,-77,0.43,-0.14,-0.52,0.73,128.14,-14.15,-63.8,29.15,-41.56,-2000,719.06,17.58,15.34,-44.15,-415,-85,-77,0.42,-0.16,-0.52,0.73,127.09,-11.52,-65.3,28.26,walking
31,6197135,371.64,-1967.41,1028.32,29.14,-1.39,-67.11,-451,-101,-86,0.44,-0.15,-0.51,0.72,125.58,-13.26,-63.67,29.15,-198.55,-1952.88,718.32,5.81,-16.33,-41.13,-451,-101,-86,0.43,-0.18,-0.51,0.72,125.58,-9.91,-65.3,28.26,walking
32,6197193,287.48,-1954.04,944.76,30.88,-11.94,-67.08,-451,-101,-86,0.44,-0.17,-0.51,0.72,124.56,-11.6,-64.29,29.15,-301.7,-1957.4,636.17,9.81,-7.7,-40.47,-451,-101,-86,0.42,-0.21,-0.51,0.72,124.4,-7.63,-66.28,28.24,walking
33,6197249,202.51,-1969.24,985.53,25.9,-7.46,-62.45,-451,-101,-86,0.44,-0.2,-0.5,0.72,123.29,-9.19,-64.94,29.15,-386.35,-1926.7,756.1,8.9,7.98,-50.51,-470,-113,-108,0.43,-0.23,-0.49,0.72,122.24,-5.31,-65.86,28.27,walking
34,6197304,317.14,-1960.88,1018.68,23.88,14.85,-66.9,-470,-113,-108,0.45,-0.21,-0.49,0.71,120.34,-8.32,-64.46,29.16,-175.78,-1964.54,702.94,9.35,25.45,-58.2,-470,-113,-108,0.45,-0.24,-0.49,0.71,119.14,-6.15,-65.67,28.23,walking
35,6197362,262.7,-2000,1084.96,15.51,-20.81,-61.83,-470,-113,-108,0.47,-0.22,-0.49,0.71,118.64,-8.37,-64.05,29.16,-361.21,-1969.73,642.33,1.84,-2.58,-78.22,-331,-120,-98,0.45,-0.25,-0.48,0.71,118.82,-4.63,-65.77,28.25,walking
36,6197418,173.22,-2000,854.49,-0.29,-13.8,-57.7,-331,-120,-98,0.45,-0.24,-0.49,0.71,119.01,-5.82,-65.83,29.14,-495.36,-1976.5,622.56,0.27,3.38,-106.01,-331,-120,-98,0.44,-0.27,-0.49,0.71,118.45,-2.77,-67.24,28.25,walking
37,6197475,-68.91,-2000,985.78,-8.83,-13.59,-14.86,-331,-120,-98,0.43,-0.27,-0.48,0.72,119.03,-1.62,-66.27,29.14,-497.01,-2000,615.48,-1.79,-10.51,-156.44,-331,-120,-98,0.44,-0.28,-0.48,0.71,117.74,-1.51,-67.96,28.26,walking
38,6197531,-126.71,-2000,506.84,-82.32,-50.79,6.03,-410,-8,-123,0.44,-0.29,-0.52,0.67,116.7,-3.76,-73.65,29.14,-451.97,-2000,518.13,-15.69,-15.43,-151.83,-410,-8,-123,0.45,-0.3,-0.53,0.65,114.52,-5.72,-75.16,28.26,walking
39,6197587,593.75,-1899.41,1412.84,-79.09,-9.22,45.33,-410,-8,-123,0.48,-0.27,-0.52,0.65,113.45,-8.67,-72.02,29.14,341.92,-2000,1391.36,3.25,125.07,-78.52,-410,-8,-123,0.53,-0.26,-0.49,0.64,107.65,-10.61,-66.72,28.26,walking
40,6197643,646.85,-2000,1394.96,-80.96,65.11,78.68,-410,-8,-123,0.54,-0.27,-0.47,0.64,105.79,-9.5,-65.75,29.14,708.5,-1604.92,1296.08,-57.19,98.74,-17.72,-349,-104,-96,0.56,-0.26,-0.45,0.65,104.77,-9.34,-61.97,28.24,walking
41,6197701,745.12,-2000,1247.25,-52.7,107.06,97.27,-349,-104,-96,0.54,-0.27,-0.43,0.67,105.63,-5.79,-61.32,29.16,432.68,-1540.89,1189.27,-96.57,92.83,94.5,-349,-104,-96,0.53,-0.29,-0.42,0.68,106.16,-2.69,-60.89,28.26,walking
42,6197757,815.92,-1917.05,1216.55,-24.84,124.36,113.42,-349,-104,-96,0.53,-0.29,-0.41,0.69,105.92,-1.73,-60.18,29.16,370.12,-1568.48,1126.16,-127.59,41.92,143.81,-332,134,-123,0.57,-0.3,-0.42,0.64,100.17,-5.57,-61.56,28.26,walking
43,6197814,709.17,-1796.75,1176.39,-8.29,143.39,106.44,-332,134,-123,0.63,-0.29,-0.4,0.6,92.37,-8.94,-59.47,29.15,388.24,-1518.07,1071.23,-147.57,73.2,234.94,-332,134,-123,0.62,-0.33,-0.4,0.59,90.25,-6.23,-61.98,28.23,walking
44,6197871,876.59,-1631.59,930.66,0.66,168.14,64.84,-332,134,-123,0.68,-0.32,-0.39,0.53,82.54,-10.78,-60.15,29.16,505.8,-1735.78,901.73,-125.85,92.47,249.99,-361,184,-84,0.67,-0.37,-0.38,0.52,81.09,-7.07,-63.86,28.25,walking
45,6197927,727.11,-1840.33,686.83,-12.79,122.71,18.77,-361,184,-84,0.7,-0.37,-0.39,0.47,75.14,-11.83,-64.03,29.17,-204.47,-2000,668.27,-86.24,44,249.99,-361,184,-84,0.66,-0.43,-0.36,0.5,75.55,-2.41,-68.2,28.25,walking
46,6197982,32.71,-2000,529.17,-6.88,127.75,71.59,-361,184,-84,0.68,-0.46,-0.33,0.46,69.83,-1.72,-68.76,29.13,-308.59,-1516.11,972.05,8.22,-61.13,180.26,-436,98,-118,0.66,-0.46,-0.29,0.52,73.4,5.57,-65.51,28.25,walking
47,6198039,-923.77,-2000,757.57,69.31,-94.3,51.32,-436,98,-118,0.64,-0.46,-0.26,0.55,75.34,9.63,-63.82,29.16,-450.5,-1734.74,786.19,60.53,-7.32,-31.2,-436,98,-118,0.66,-0.45,-0.26,0.54,73.32,8.2,-62,28.25,walking
48,6198095,252.62,-1768.8,1080.87,51.12,-6.69,-5.92,-436,98,-118,0.7,-0.41,-0.27,0.52,72.13,2.49,-59.12,29.15,-15.99,-2000,864.07,61.04,107.08,-92.49,-436,98,-118,0.72,-0.42,-0.27,0.49,68.04,1.14,-59.57,28.27,walking
49,6198150,266.91,-2000,867.13,-14.72,160.5,-47.23,-468,100,119,0.74,-0.43,-0.27,0.44,62.66,-1.46,-61.15,29.14,-42.48,-2000,-132.2,19.19,216.92,-32.65,-468,100,119,0.73,-0.5,-0.27,0.4,57.12,0.22,-68.41,28.25,walking
50,6198227,1091.06,-2000,1190.86,54.99,84.86,-83.08,-468,100,119,0.82,-0.38,-0.31,0.29,48.05,-17.21,-57.58,29.11,290.41,-1578.06,1153.08,40.89,-2.11,-68.52,-468,158,11,0.82,-0.39,-0.29,0.32,49.45,-12.73,-56.8,28.25,walking
51,6198285,481.63,-1942.44,1188.96,50.74,-100.34,-46.36,-468,158,11,0.8,-0.39,-0.3,0.34,53.21,-12.33,-57.68,29.14,-244.51,-2000,663.02,17.32,-42.06,-61.53,-468,158,11,0.77,-0.43,-0.29,0.37,55.52,-7.06,-62.13,28.22,walking
52,6198341,436.34,-1967.16,1049.26,22.4,10.65,-57.14,-468,158,11,0.78,-0.42,-0.29,0.36,55,-8.74,-61.77,29.13,39.61,-1948.55,724.55,18.75,37.63,-36.56,-468,158,11,0.77,-0.45,-0.28,0.36,54.66,-6.05,-63.8,28.24,walking
53,6198396,376.65,-1995.12,1010.56,23.79,33.62,-63.96,-468,169,18,0.78,-0.44,-0.29,0.35,53.02,-8.11,-62.86,29.14,-265.26,-1954.53,702.58,7.69,16.09,-30.78,-468,169,18,0.76,-0.47,-0.26,0.36,52.97,-4.01,-64.94,28.22,walking
54,6198451,290.1,-1969.6,901.37,29.21,31.11,-70.3,-468,169,18,0.78,-0.46,-0.27,0.34,51.3,-6.44,-64.1,29.14,-256.47,-1927.43,585.69,9.35,21.38,-34.51,-468,169,18,0.76,-0.49,-0.25,0.35,50.93,-2.84,-66.59,28.28,walking
55,6198507,310.12,-2000,880.43,32.44,7.82,-67.7,-361,215,-13,0.79,-0.46,-0.27,0.31,48.19,-7.62,-63.95,29.15,-407.47,-1921.26,682.56,7.95,-5.01,-46.55,-361,215,-13,0.78,-0.48,-0.25,0.32,47.68,-4.32,-65.09,28.25,walking
56,6198563,234.37,-1987.3,1058.72,17.49,16.47,-62.93,-361,215,-13,0.8,-0.46,-0.25,0.3,45.56,-6.89,-62.84,29.13,-228.58,-1929.69,740.48,7.19,43.27,-54.93,-361,215,-13,0.79,-0.48,-0.23,0.3,44.01,-4.23,-64.11,28.26,walking
57,6198620,320.25,-2000,1007.63,16.72,13.13,-58.17,-354,-92,-57,0.76,-0.5,-0.2,0.37,49.48,3.37,-64.49,29.13,-326.97,-2000,599.73,2.75,13.4,-73.68,-354,-92,-57,0.72,-0.53,-0.18,0.41,52.23,10.15,-67.83,28.24,walking
58,6198676,95.09,-2000,802.19,4.81,2.78,-55.02,-354,-92,-57,0.7,-0.54,-0.19,0.42,54.54,11.01,-69.28,29.12,-501.46,-1977.54,510.44,-7.08,26.24,-106.64,-354,-92,-57,0.68,-0.57,-0.18,0.43,54.83,14.21,-72.55,28.24,walking
59,6198732,-84.47,-2000,920.59,-27.69,10.73,-33,-359,-60,-49,0.68,-0.56,-0.2,0.43,55.88,12.68,-72.5,29.14,-599.37,-2000,327.21,-0.94,22.85,-157.68,-359,-60,-49,0.67,-0.58,-0.2,0.42,54.68,12.64,-76,28.24,walking
60,6198789,-259.16,-2000,736.51,-93.41,-80.28,5.49,-359,-60,-49,0.64,-0.59,-0.22,0.44,58.28,13.34,-77.35,29.14,-687.93,-2000,576.6,-34.73,-29.72,-162.47,-359,-60,-49,0.64,-0.59,-0.24,0.44,58.88,12.12,-78.15,28.25,walking
61,6198845,362.73,-2000,1530.46,-82.47,47.04,42.95,-359,-60,-49,0.66,-0.56,-0.24,0.44,59.9,10.21,-74.19,29.14,285.64,-2000,1150.45,-30.25,204.15,-65.51,-470,317,26,0.76,-0.5,-0.21,0.35,48.07,2.02,-65.8,28.22,walking
62,6198901,684.39,-2000,1613.65,-93.4,115.38,82.96,-470,317,26,0.8,-0.48,-0.2,0.31,43.55,-0.87,-62.01,29.13,688.9,-1693.73,1359.56,-92.47,133.3,-28.14,-470,317,26,0.82,-0.46,-0.2,0.26,38.56,-5.12,-60.35,28.26,walking
63,6198957,849.49,-2000,1261.66,-67.38,140.94,101.22,-470,317,26,0.82,-0.47,-0.19,0.24,36.18,-4.89,-61.25,29.15,485.53,-1404.97,1329.16,-112.43,98.79,95.72,-461,322,-15,0.83,-0.47,-0.18,0.24,35.14,-3.53,-60.72,28.25,walking
64,6199013,896.3,-1902.28,1184.88,-19.65,127.63,118.05,-461,322,-15,0.83,-0.48,-0.17,0.24,34.13,-3.61,-60.91,29.13,427.67,-1471.92,1096.07,-132.91,46.61,163.07,-461,322,-15,0.81,-0.5,-0.17,0.25,35.64,-1.25,-63.11,28.24,walking
65,6199069,874.51,-1702.39,1011.78,-5.78,133.53,112.47,-461,322,-15,0.82,-0.49,-0.17,0.23,33.55,-2.99,-62.15,29.14,533.94,-1406.31,932.68,-141.65,49.34,249.99,-348,317,-44,0.81,-0.51,-0.16,0.26,35.51,-0.09,-64.72,28.25,walking
66,6199126,982.91,-1552.73,921.45,4.93,140.54,52.76,-348,317,-44,0.83,-0.49,-0.18,0.21,31.65,-4.97,-62.57,29.15,588.13,-1756.59,828.12,-119.86,56.14,249.99,-348,317,-44,0.8,-0.52,-0.17,0.23,33.7,-1.28,-66.68,28.24,walking
67,6199182,790.77,-1829.59,719.97,-18.06,99.39,18.31,-348,317,-44,0.81,-0.52,-0.19,0.19,30.59,-5.85,-67.08,29.14,-164.25,-2000,828.43,-90.84,-20.65,249.99,-348,317,-44,0.78,-0.55,-0.14,0.25,33.53,2.89,-69.85,28.23,walking
68,6199237,-421.39,-1934.33,163.7,15.4,112.59,60.58,-392,-113,-125,0.71,-0.62,-0.07,0.33,35.71,17.52,-76.61,29.15,-1290.65,-1328.49,696.96,35.14,-124.76,77.55,-392,-113,-125,0.66,-0.61,-0.02,0.43,42.9,30.14,-73.58,28.24,walking
69,6199295,-529.36,-1943.91,1037.66,69.24,-107.75,46.56,-392,-113,-125,0.67,-0.58,-0.04,0.47,50.09,29.01,-68.36,29.14,-99.85,-1647.89,933.59,61.75,35.3,-100.87,-392,-113,-125,0.69,-0.56,-0.08,0.45,50.92,23.2,-67.27,28.24,walking
70,6199351,1137.76,-1344.42,1380.43,-0.54,11.34,-4.04,-395,-113,-118,0.72,-0.51,-0.15,0.45,55.5,13.76,-63.68,29.15,-753.11,-2000,259.77,10.28,116.71,37.6,-395,-113,-118,0.66,-0.57,-0.12,0.47,55.5,22.28,-69.74,28.25,walking
71,6199409,-825.32,-2000,-154.42,19.15,114.59,21.71,-395,-113,-118,0.61,-0.64,-0.1,0.46,51.46,27.76,-79.14,29.14,350.89,-2000,208.31,66.42,135.09,-97.88,-395,-113,-118,0.65,-0.64,-0.15,0.39,46.62,17.65,-81.84,28.23,walking
72,6199464,1374.45,-1479.86,1335.57,20.34,2.46,-41.82,-376,-111,-42,0.72,-0.57,-0.21,0.35,48.06,5.08,-74.45,29.13,216,-1861.82,1098.57,50.38,-115.02,-76.64,-376,-111,-42,0.72,-0.53,-0.22,0.39,53.11,5.88,-69.8,28.24,walking
73,6199521,204.65,-2000,1228.03,37.75,-86.84,-59.35,-376,-111,-42,0.71,-0.5,-0.22,0.44,58.51,7.14,-65.91,29.14,-217.41,-2000,745.61,3.62,9.33,-58.37,-376,-111,-42,0.69,-0.52,-0.21,0.46,60.54,11.32,-67.44,28.22,walking
74,6199577,532.17,-1907.78,1011.23,25.51,27.21,-70.63,-376,-111,-42,0.7,-0.5,-0.23,0.46,61.68,7.79,-66.28,29.12,-20.26,-1960.69,612.49,18.31,34.79,-34.96,-341,-65,-64,0.68,-0.52,-0.23,0.47,62.93,9.82,-68.57,28.23,walking
75,6199633,356.81,-2000,1012.63,25.39,44.65,-75.07,-341,-65,-64,0.69,-0.5,-0.25,0.46,63.37,6.9,-67.47,29.12,-392.82,-1907.96,713.5,8.38,-5.53,-37.99,-341,-65,-64,0.66,-0.51,-0.23,0.49,65.54,11.23,-68.44,28.24,walking
76,6199688,198.85,-1904.54,951.84,42.58,8.5,-66.51,-341,-65,-64,0.68,-0.49,-0.25,0.49,66.73,8.12,-66.66,29.12,-297.73,-1984.74,571.35,15.32,17.04,-44.14,-359,-36,-69,0.66,-0.51,-0.25,0.49,67.22,9.86,-68.94,28.22,walking
77,6199743,234.68,-1984.68,998.05,26.15,8.89,-71.27,-359,-36,-69,0.67,-0.48,-0.27,0.49,67.72,5.89,-67.41,29.12,-304.14,-1947.02,817.87,13.24,13.53,-58.61,-359,-36,-69,0.66,-0.49,-0.26,0.5,68.61,8.13,-67.64,28.25,walking
78,6199800,347.84,-1946.47,1120.85,21.41,19.27,-68.75,-359,-36,-69,0.68,-0.46,-0.28,0.49,69.11,4.1,-65.58,29.13,-130.74,-2000,678.34,7.51,23.97,-67.91,-359,-36,-69,0.67,-0.48,-0.28,0.5,69.73,5.59,-67.36,28.21,walking
79,6199855,257.14,-2000,908.14,16.4,-10.21,-66.34,-253,317,-121,0.75,-0.44,-0.28,0.41,59.47,-2.87,-63.13,29.13,-577.94,-1951.48,510.99,-3.15,25.68,-115.81,-253,317,-121,0.78,-0.5,-0.21,0.3,43.74,-1.46,-66.46,28.23,walking
80,6199944,-156.37,-2000,1014.83,-22.61,-15.01,-23.6,-253,317,-121,0.79,-0.5,-0.2,0.29,41.68,-1.34,-65.29,29.14,-600.04,-2000,278.44,0.42,-12.68,-172.65,-424,350,-123,0.77,-0.53,-0.2,0.27,39.86,-1.18,-69.56,28.23,walking
81,6200000,-232.36,-2000,719.42,-88.33,-86.49,4.55,-424,350,-123,0.76,-0.55,-0.21,0.29,41.78,0.02,-71.99,29.13,-329.35,-2000,968.81,-25.31,-25.04,-155.71,-424,350,-123,0.77,-0.53,-0.21,0.27,40.12,-2.35,-69.95,28.23,walking
82,6200057,528.63,-2000,1508.79,-77.88,47.41,48.03,-424,350,-123,0.79,-0.51,-0.21,0.26,38.65,-3.59,-67,29.12,324.58,-2000,1470.03,-30.07,165.77,-91.55,-456,317,-81,0.82,-0.5,-0.18,0.22,33.2,-4.89,-63.9,28.21,walking
83,6200114,1054.5,-2000,1451.35,-90.84,126.27,76.96,-456,317,-81,0.82,-0.5,-0.19,0.21,32.38,-5.48,-64.87,29.12,422.73,-1649.11,1171.94,-66.6,92.37,-2.78,-456,317,-81,0.82,-0.51,-0.18,0.2,31.36,-5.26,-64.96,28.22,walking
84,6200170,836.91,-1967.22,1217.22,-51.44,121.23,107.12,-456,317,-81,0.81,-0.52,-0.17,0.2,31.12,-4.09,-65.87,29.13,534.18,-1384.83,1252.99,-100.46,95.89,106.65,-414,-36,-433,0.78,-0.51,-0.19,0.3,41.89,0.98,-65.72,28.25,walking
85,6200227,886.84,-1874.08,1182.74,-20.73,116.05,121.21,-414,-36,-433,0.75,-0.5,-0.21,0.38,51.64,3.44,-65.69,29.15,445.8,-1466.55,1120.3,-127.51,49.74,176.32,-414,-36,-433,0.7,-0.5,-0.23,0.45,60.84,7.08,-66.33,28.22,walking
86,6200283,884.16,-1668.76,1067.81,-2.52,131.86,106.48,-414,-36,-433,0.69,-0.47,-0.26,0.48,66.22,5.58,-65.04,29.13,592.9,-1357.79,989.01,-137.21,40.93,249.99,-414,-36,-433,0.64,-0.47,-0.28,0.53,74.39,7.96,-65.91,28.22,walking
87,6200339,956.54,-1561.52,911.13,6.09,137.66,38.75,-454,-46,-545,0.66,-0.43,-0.32,0.53,75.93,1.94,-64.85,29.11,401.06,-1932.98,745.24,-120.1,45.01,249.99,-454,-46,-545,0.61,-0.46,-0.33,0.56,81.39,6.12,-68.68,28.24,walking
88,6200395,613.95,-1939.21,670.47,-30.77,101.8,36.69,-454,-46,-545,0.61,-0.45,-0.36,0.54,81.75,2.67,-70.54,29.13,34.06,-2000,579.9,-58.94,50.9,249.99,-454,-46,-545,0.56,-0.48,-0.35,0.58,85.1,9.58,-72.94,28.25,walking
89,6200451,-373.6,-1498.72,438.23,67.44,94.76,25.78,-253,-78,-529,0.55,-0.49,-0.33,0.6,85.83,12.82,-71.57,29.13,-811.1,-1543.95,756.96,39.12,-119.58,40.28,-253,-78,-529,0.51,-0.47,-0.32,0.65,92.16,16.32,-67.78,28.24,walking
90,6200507,-301.88,-1817.2,958.19,73.96,-160.85,35.52,-253,-78,-529,0.51,-0.41,-0.33,0.68,98.44,13.2,-62.93,29.13,-200.01,-1864.38,737.55,61.74,-45.24,-123.34,-253,-78,-529,0.54,-0.39,-0.35,0.66,97.42,7.33,-62.92,28.2,walking
91,6200564,622.44,-2000,483.03,-45.19,-60.55,8.04,-239,331,-556,0.59,-0.4,-0.39,0.58,88.58,0.62,-67.87,29.14,-279.05,-2000,256.53,28.45,167.21,-51.33,-239,331,-556,0.63,-0.47,-0.35,0.52,77.1,2.77,-70.96,28.21,walking
92,6200620,1113.1,-2000,1177.67,22.45,246.41,-64.58,-239,331,-556,0.72,-0.45,-0.32,0.42,64.15,-4.43,-66.52,29.13,633.97,-1687.44,1040.95,39.15,88.82,-81.43,-239,331,-556,0.76,-0.42,-0.32,0.39,59.84,-9.11,-62.82,28.25,walking
93,6200677,682.5,-1760.86,1264.4,67.7,-109.99,-41.62,-239,331,-556,0.77,-0.36,-0.34,0.39,62.01,-14.15,-59,29.12,-83.37,-2000,812.01,34.06,-117.42,-69.31,-431,326,-713,0.75,-0.37,-0.36,0.42,66.69,-12.7,-61.14,28.25,walking
94,6200734,194.64,-2000,1121.58,54.06,-57.87,-63.1,-431,326,-713,0.75,-0.36,-0.36,0.44,68.11,-12.77,-59.65,29.12,-82.95,-1943.73,805.97,25.83,48,-40.09,-431,326,-713,0.74,-0.38,-0.34,0.44,67.2,-9.05,-60.78,28.2,walking
95,6200790,417.18,-2000,1047.97,31.5,28.41,-63.19,-431,326,-713,0.75,-0.37,-0.34,0.43,66.23,-10.61,-60.07,29.12,-177.25,-2000,712.77,16.29,10.12,-33.78,-400,360,-696,0.73,-0.4,-0.33,0.44,66.01,-7.22,-62.33,28.22,walking
96,6200845,241.33,-1938.05,954.71,37.61,-11.2,-72.59,-400,360,-696,0.74,-0.39,-0.33,0.43,65.48,-8.94,-61.59,29.12,-362.24,-1998.96,654.79,16.03,-8.05,-43.83,-400,360,-696,0.7,-0.47,-0.3,0.45,65.7,0.38,-67.31,28.22,walking
97,6200946,91.55,-1995.06,975.16,29.34,-2.56,-55.66,-361,375,-712,0.72,-0.45,-0.3,0.44,64.8,-2.15,-65.31,29.12,-273.74,-1928.96,755.07,13.76,9.16,-57.11,-361,375,-712,0.71,-0.46,-0.29,0.44,64.09,-0.95,-65.77,28.22,walking
98,6201000,367.43,-1938.23,1084.41,24.93,7.46,-57.89,-361,375,-712,0.74,-0.43,-0.31,0.43,63.32,-4.92,-63.55,29.14,-363.34,-2000,617.8,5.33,-6.73,-82.02,-304,321,-732,0.7,-0.48,-0.3,0.44,64.6,-0.37,-69.13,28.24,walking
99,6201098,34.12,-2000,884.4,3.32,-6.35,-61.44,-304,321,-732,0.7,-0.46,-0.31,0.44,65.15,-2.25,-68.18,29.12,-446.96,-1979.8,522.4,3.67,20.71,-111.55,-304,321,-732,0.7,-0.48,-0.31,0.43,64.38,-0.96,-69.88,28.22,walking
100,6201153,-59.63,-2000,890.56,-17.92,-36.48,-16.19,-304,321,-732,0.69,-0.47,-0.32,0.44,66.29,-0.99,-69.31,29.1,-567.57,-2000,235.35,8.59,-37.88,-171.96,-466,331,-735,0.68,-0.49,-0.33,0.43,66.44,-1.14,-72.82,28.24,walking
101,6201211,-159.91,-2000,532.65,-83.35,-97.09,13.7,-466,331,-735,0.65,-0.51,-0.35,0.45,69.76,0.22,-75.82,29.11,-243.04,-2000,771.67,-12.06,-56.72,-148.27,-466,331,-735,0.66,-0.49,-0.36,0.44,69.86,-2.52,-74.24,28.21,walking
102,6201267,495.79,-2000,1508.97,-68.7,-9.51,44.42,-466,331,-735,0.68,-0.46,-0.35,0.45,70.01,-4.04,-70.25,29.12,279.36,-2000,1404.66,-9.09,147.66,-83.47,-466,331,-735,0.72,-0.44,-0.32,0.43,64.94,-5.37,-65.87,28.23,walking
103,6201323,1004.39,-2000,1538.39,-80.51,94.01,79.68,-143,319,-555,0.74,-0.43,-0.31,0.4,61.51,-6.74,-64.42,29.13,522.28,-1598.82,1252.81,-56.5,78.91,9.06,-143,319,-555,0.76,-0.42,-0.3,0.39,58.75,-7.63,-62.41,28.2,walking
104,6201380,860.72,-1976.81,1218.51,-40.82,102.26,103.59,-143,319,-555,0.77,-0.43,-0.3,0.38,57.53,-7.28,-62.31,29.1,463.56,-1407.29,1209.59,-89.67,83.99,122.09,-143,319,-555,0.77,-0.43,-0.28,0.39,57.11,-5.2,-61.23,28.2,walking
105,6201437,815.67,-1826.66,1146.61,-8.99,105.51,121.95,-226,372,-867,0.77,-0.42,-0.28,0.4,58.57,-5.52,-60.21,29.14,447.69,-1504.94,1052.92,-117.31,48.61,182.75,-226,372,-867,0.75,-0.43,-0.28,0.42,61.4,-3.2,-61.82,28.22,walking
106,6201493,828.31,-1665.22,1020.51,4.02,135.57,99.56,-226,372,-867,0.76,-0.42,-0.28,0.42,60.61,-4.68,-60.55,29.13,487.12,-1458.68,952.94,-128.59,48.8,249.99,-226,372,-867,0.73,-0.44,-0.28,0.44,63.9,-1.34,-62.97,28.22,walking
107,6201549,884.03,-1562.62,839.42,6.19,148.85,39.54,-456,396,-921,0.75,-0.42,-0.3,0.42,61.84,-5.79,-62.29,29.13,388.67,-1864.56,705.99,-115.86,45.31,249.99,-456,396,-921,0.71,-0.46,-0.3,0.45,65.36,-1.05,-66.83,28.23,walking
108,6201605,401.79,-2000,687.87,-29.91,67.49,50.17,-456,396,-921,0.7,-0.47,-0.31,0.44,65.26,-1.7,-68.91,29.11,-57.98,-2000,497.62,-50.42,15.82,244.42,-456,396,-921,0.65,-0.51,-0.3,0.47,67.94,5.45,-72.12,28.23,walking
109,6201662,-509.09,-1622.19,580.14,60.46,38.99,35.3,-456,396,-921,0.65,-0.51,-0.26,0.49,67.41,9.84,-70.02,29.12,-721.68,-1660.4,841.74,41.64,-119.58,28.89,-468,-118,-983,0.6,-0.48,-0.27,0.58,78.88,13.48,-65.99,28.22,walking
110,6201717,-124.39,-1854.19,1024.29,74.69,-147.29,29.17,-468,-118,-983,0.59,-0.42,-0.3,0.62,87.43,9.94,-61.98,29.11,6.71,-1693.54,822.33,60.62,-39.09,-125.11,-468,-118,-983,0.6,-0.38,-0.34,0.61,89.11,3.5,-61.2,28.21,walking
111,6201815,-1173.16,-2000,-76.6,32.62,125.74,10.34,-466,345,-884,0.56,-0.63,-0.22,0.5,64.34,22.6,-82.34,29.11,177.61,-2000,400.94,43.27,162.81,-91.13,-466,345,-884,0.62,-0.61,-0.24,0.44,59.32,13.33,-81.77,28.23,walking
112,6201871,1511.29,-1787.35,1184.45,24.07,22.77,-45.3,-466,345,-884,0.68,-0.53,-0.31,0.4,60.7,-0.43,-76,29.14,513.61,-1668.95,959.96,52.82,-96.43,-74.71,-466,345,-884,0.7,-0.46,-0.35,0.41,65.08,-6.84,-70.92,28.21,walking
113,6201929,320.13,-2000,1237.79,34.09,-130.34,-54.63,-437,-118,-983,0.68,-0.39,-0.39,0.48,76.63,-9.54,-66.86,29.13,-331.6,-2000,840.58,7.28,-17.99,-63.75,-437,-118,-983,0.65,-0.38,-0.39,0.52,81.55,-6.48,-66.58,28.21,walking
114,6201985,526.18,-1990.97,1072.39,21.26,21.29,-65.77,-437,-118,-983,0.66,-0.35,-0.41,0.53,84.25,-9.91,-64.55,29.11,27.59,-1964.36,665.47,14.11,29.59,-39.27,-437,-118,-983,0.64,-0.35,-0.41,0.54,86.5,-8.21,-65.76,28.19,walking
115,6202041,349.24,-1991.46,1049.32,21.06,40.85,-67.41,-354,352,-961,0.68,-0.36,-0.39,0.51,79.38,-9.51,-63.56,29.12,-285.64,-1920.47,747.13,7.9,-2.51,-38.17,-354,352,-961,0.68,-0.39,-0.37,0.5,76.85,-5.85,-64.77,28.24,walking
116,6202098,282.04,-1876.89,963.26,32.22,3.41,-67.11,-354,352,-961,0.7,-0.38,-0.36,0.48,74.11,-7.94,-63.17,29.11,-209.29,-1964.84,620,12.77,4.69,-40.25,-354,352,-961,0.69,-0.41,-0.35,0.48,72.82,-5.18,-65.32,28.21,walking
117,6202154,280.4,-2000,966.98,26.69,-2.27,-62.77,-354,352,-961,0.71,-0.4,-0.35,0.47,71.54,-7.35,-64.18,29.12,-270.94,-1930.18,753.3,11.49,5.78,-46.99,-212,345,-988,0.7,-0.42,-0.34,0.47,70.39,-4.32,-65.09,28.23,walking
118,6202210,248.35,-1958.8,1014.83,27.2,19.78,-61.4,-212,345,-988,0.72,-0.41,-0.33,0.46,68.97,-6.24,-63.5,29.11,-110.9,-2000,787.41,11.63,26,-55.54,-212,345,-988,0.71,-0.42,-0.33,0.45,67.9,-4.79,-64.44,28.22,walking
119,6202266,314.27,-2000,1101.26,19.67,-13.4,-60.51,-212,345,-988,0.73,-0.4,-0.34,0.45,67.92,-7.57,-62.85,29.11,-364.01,-2000,631.29,2.91,-10.37,-72.9,-182,324,-826,0.71,-0.43,-0.33,0.45,67.28,-4.7,-65.42,28.22,walking
120,6202323,46.02,-2000,893.8,5.74,-13.86,-57.84,-182,324,-826,0.72,-0.43,-0.33,0.44,67.16,-5.39,-65.36,29.11,-453.12,-2000,513.37,-0.29,0.53,-108.45,-182,324,-826,0.7,-0.45,-0.33,0.44,66.33,-3.45,-67.92,28.21,walking
121,6202379,-13.24,-2000,873.78,-25.29,-45.09,-22.67,-182,324,-826,0.7,-0.45,-0.33,0.45,67.84,-3.52,-68.22,29.11,-430.24,-2000,343.02,-0.38,-33.34,-157.87,-461,350,-986,0.68,-0.47,-0.35,0.44,68.62,-3.61,-71.58,28.21,walking
122,6202435,-135.25,-2000,626.1,-76.77,-87.43,7.3,-461,350,-986,0.65,-0.48,-0.36,0.46,72.1,-1.93,-74.15,29.1,-401.55,-2000,699.52,-4.75,-44.94,-152.31,-461,350,-986,0.66,-0.47,-0.37,0.46,72.2,-2.82,-73.37,28.21,walking
123,6202492,456.79,-2000,1358.22,-69.31,-11.54,49.66,-461,350,-986,0.67,-0.45,-0.36,0.47,72.79,-3.89,-70.45,29.1,383.36,-2000,1116.27,6.32,131.37,-79.28,-461,350,-986,0.71,-0.43,-0.35,0.44,68.31,-6.18,-67.25,28.2,walking
124,6202548,832.76,-2000,1385.25,-75.23,37.78,78.58,-409,417,-988,0.71,-0.42,-0.35,0.44,67.99,-7.41,-66.08,29.11,757.14,-1636.35,1199.46,-35.18,67.39,-0.91,-409,417,-988,0.74,-0.4,-0.35,0.42,66.07,-10.19,-63.66,28.2,walking
125,6202605,869.63,-1999.82,1122.68,-31.04,66.58,101.13,-409,417,-988,0.73,-0.4,-0.35,0.42,66.21,-9.77,-63.66,29.12,463.26,-1396.06,1067.69,-57.3,62.43,111.68,-409,417,-988,0.74,-0.4,-0.33,0.44,66.21,-7.69,-62.25,28.21,walking
126,6202660,850.28,-1812.44,1060.42,0.62,80.33,121.69,-439,334,-826,0.73,-0.39,-0.33,0.44,67.04,-7.54,-61.46,29.13,478.58,-1477.36,953.31,-82.21,35.32,167.64,-439,334,-826,0.72,-0.41,-0.33,0.46,69.02,-5.27,-62.63,28.2,walking
127,6202717,767.03,-1692.81,1032.35,14.82,101.16,100.48,-439,334,-826,0.73,-0.4,-0.32,0.46,68.13,-5.85,-61.03,29.14,383.97,-1472.72,885.31,-95.69,29.3,249.99,-439,334,-826,0.7,-0.42,-0.31,0.49,71.21,-1.23,-63.28,28.22,walking
128,6202774,832.09,-1606.81,831.05,13.2,127.43,59.75,-439,239,-826,0.71,-0.41,-0.33,0.47,69.91,-4.86,-62.62,29.13,350.59,-1841.19,659.48,-91.89,28,249.99,-439,239,-826,0.67,-0.44,-0.33,0.5,73.59,-0.2,-66.87,28.22,walking
129,6202830,540.53,-2000,511.47,-23.21,68.84,41.23,-439,239,-826,0.67,-0.45,-0.35,0.48,72.94,-2.43,-69.98,29.12,-189.82,-2000,821.84,-45.65,-20.8,249.99,-439,239,-826,0.63,-0.48,-0.32,0.52,76.19,5.42,-70.58,28.22,walking
130,6202887,-458.25,-1730.9,830.14,53.7,39.02,43.86,-439,239,-826,0.63,-0.48,-0.28,0.54,75.47,9.47,-67.18,29.11,-751.95,-1578.12,661.38,8.19,-98.07,88.72,-334,98,-975,0.59,-0.48,-0.27,0.59,81.63,14.39,-66.1,28.23,walking
131,6202942,-199.83,-1888.61,750.98,48.32,-104.27,30.66,-334,98,-975,0.58,-0.45,-0.3,0.61,85.72,11.4,-64.71,29.09,-43.95,-1647.09,581.91,51.21,-75.69,-116.91,-334,98,-975,0.6,-0.42,-0.34,0.59,85.95,4.93,-64.93,28.2,walking
132,6202998,58.41,-1861.57,1430.66,44.69,-71.21,-13.58,-334,98,-975,0.62,-0.37,-0.34,0.6,87.67,1.71,-59.88,29.1,-1028.87,-2000,781.43,-5.29,82.75,-0.63,-456,136,-857,0.61,-0.43,-0.29,0.6,83.93,9.17,-62.59,28.22,walking
133,6203054,-739.75,-2000,382.45,24.45,180.1,-4.07,-456,136,-857,0.6,-0.49,-0.26,0.57,77.89,14.24,-67.34,29.12,84.59,-2000,310.61,26.82,200.68,-82.47,-456,136,-857,0.62,-0.51,-0.28,0.52,72.03,9.99,-71.57,28.22,walking
134,6203110,1259.95,-2000,740.05,36.83,71.21,-52.69,-456,136,-857,0.67,-0.46,-0.35,0.47,71.72,-1.63,-70.75,29.12,587.46,-1648.38,945.13,45.27,-107.54,-79.64,-400,-114,-852,0.66,-0.36,-0.42,0.51,83,-10.79,-66.47,28.2,walking
135,6203173,363.71,-2000,1311.65,31.49,-117.54,-49.06,-400,-114,-852,0.65,-0.31,-0.43,0.55,88.97,-12.9,-63.37,29.13,-298.58,-2000,899.41,16.98,-39.24,-60.76,-400,-114,-852,0.62,-0.32,-0.42,0.57,91.33,-9.52,-63.58,28.19,walking
136,6203230,521.36,-2000,1063.42,22.15,9.06,-59.96,-400,-114,-852,0.63,-0.29,-0.43,0.57,91.81,-12.1,-62.31,29.11,47.73,-1969.97,677.8,14.31,18.94,-42.25,-381,98,-867,0.64,-0.33,-0.42,0.56,89.04,-9.93,-64.17,28.22,walking
137,6203288,333.74,-1978.39,1043.52,21.86,11.89,-58.24,-381,98,-867,0.65,-0.32,-0.41,0.54,86.33,-10.84,-62.71,29.12,-280.33,-1965.82,880.74,8.94,-8.26,-36.19,-381,98,-867,0.65,-0.35,-0.39,0.55,85.51,-6.99,-63.32,28.19,walking
138,6203343,217.22,-1911.32,1043.7,25.57,-12.02,-56.8,-381,98,-867,0.66,-0.34,-0.39,0.55,84.54,-8.22,-61.96,29.1,-148.62,-1938.11,691.83,8.47,-5.94,-38.75,-381,98,-867,0.65,-0.36,-0.39,0.55,84.23,-5.91,-64,28.19,walking
139,6203400,380.43,-2000,960.02,22.96,-18.67,-59.66,-243,126,-880,0.66,-0.35,-0.4,0.53,83.03,-8.76,-63.39,29.1,-177.61,-1947.51,753.85,8.38,-11.55,-42.63,-243,126,-880,0.66,-0.37,-0.39,0.53,82.38,-6.32,-64.59,28.22,walking
140,6203456,287.84,-1940.67,1082.7,32.88,12.15,-68.33,-243,126,-880,0.68,-0.35,-0.38,0.52,80.66,-8.24,-62.35,29.1,-239.14,-2000,821.23,10.67,20.73,-45.82,-243,126,-880,0.67,-0.38,-0.37,0.53,79.75,-5.31,-63.35,28.19,walking
141,6203512,175.78,-2000,1067.14,32.51,12.44,-77.91,-249,187,-877,0.69,-0.37,-0.36,0.51,77.52,-6.91,-61.74,29.1,-537.84,-1925.29,688.35,4.39,14.17,-69.43,-249,187,-877,0.68,-0.4,-0.34,0.51,76.37,-2.84,-63.73,28.2,walking
142,6203567,7.45,-2000,915.77,10.7,-12.23,-60.14,-249,187,-877,0.68,-0.4,-0.35,0.51,76.37,-3.86,-63.86,29.11,-439.76,-2000,546.75,6.68,-11.73,-108.51,-249,187,-877,0.67,-0.42,-0.35,0.5,75.88,-2.5,-66.49,28.19,walking
143,6203624,-91.8,-2000,831.91,-16.01,-74.47,-7.69,-249,187,-877,0.65,-0.42,-0.36,0.52,78.38,-2.2,-67.25,29.1,-495.3,-2000,451.9,6.54,-58.34,-161.87,-199,129,-880,0.64,-0.43,-0.38,0.51,79.1,-2.78,-69.68,28.2,walking
144,6203680,118.77,-2000,509.28,-66.86,-104.76,17.93,-199,129,-880,0.61,-0.43,-0.41,0.52,82.81,-3.44,-73.29,29.1,-361.82,-2000,816.96,23.41,-72.75,-148.93,-199,129,-880,0.62,-0.42,-0.41,0.52,83.16,-4.4,-71.22,28.2,walking
145,6203737,660.71,-2000,1075.62,-53.07,-51.27,71,-199,129,-880,0.63,-0.39,-0.42,0.52,84.64,-6.44,-70.26,29.12,594.85,-2000,1073.79,56.56,57.88,-73.24,-466,-102,-880,0.65,-0.35,-0.42,0.53,85.44,-9.86,-66.07,28.19,walking
146,6203794,1229.19,-2000,994.51,-47.87,-10.23,97.56,-466,-102,-880,0.63,-0.33,-0.45,0.54,89.84,-12.44,-67.07,29.1,358.34,-1436.65,719.06,37.66,-36.36,33.42,-466,-102,-880,0.62,-0.31,-0.45,0.57,92.85,-11.93,-65.31,28.21,walking
147,6203850,935.61,-1723.88,880,-1.17,-29.88,121.23,-466,-102,-880,0.61,-0.29,-0.46,0.58,96.14,-13.04,-65.2,29.11,492,-1326.72,781.07,6.09,-18.36,158.2,-297,276,-826,0.62,-0.31,-0.43,0.57,91.56,-10.32,-64.05,28.19,walking
148,6203907,776.25,-1735.96,936.58,22.84,-34.39,121.99,-297,276,-826,0.64,-0.32,-0.42,0.56,88.34,-10.49,-63.19,29.13,312.68,-1576.54,724.85,-11.76,-51.32,231.49,-297,276,-826,0.62,-0.36,-0.4,0.57,88.08,-5.41,-64.87,28.23,walking
149,6203964,740.48,-1581.85,890.38,30.33,27.58,93.31,-297,276,-826,0.66,-0.35,-0.39,0.54,83.72,-7.11,-62.8,29.13,444.46,-1591.19,690.12,-25.85,-23.25,249.99,-297,276,-826,0.64,-0.38,-0.38,0.55,84.26,-3.18,-64.97,28.21,walking
150,6204020,596.8,-1546.08,866.88,28.5,15.24,56.09,-442,211,-975,0.66,-0.36,-0.38,0.54,82.79,-6.14,-62.83,29.12,-102.48,-1974.3,765.01,-32.26,-65.92,249.99,-442,211,-975,0.61,-0.4,-0.36,0.58,86,0.9,-65.49,28.21,walking
151,6204075,-275.51,-2000,980.29,51.54,2.02,48.47,-442,211,-975,0.62,-0.41,-0.33,0.58,84.55,4.07,-63.52,29.12,-571.04,-1707.7,588.99,-20.82,-101,146.02,-442,211,-975,0.58,-0.44,-0.32,0.61,86.95,9.96,-65.65,28.2,walking
152,6204132,-801.51,-2000,472.41,1.83,-52.8,30.24,-453,98,-988,0.55,-0.47,-0.32,0.62,87.58,13.52,-68.41,29.11,-180.91,-1602.42,631.29,33.33,-34.47,-89.36,-453,98,-988,0.57,-0.45,-0.33,0.6,86.66,9.01,-67.59,28.2,walking
153,6204188,454.83,-1876.46,1123.23,1.79,-39.3,-38.09,-453,98,-988,0.61,-0.4,-0.36,0.58,86.89,1.38,-65.12,29.1,-1148.13,-2000,566.65,-0.85,53.73,-22.42,-453,98,-988,0.59,-0.45,-0.33,0.59,84.55,8.51,-67.57,28.19,walking
154,6204245,-520.94,-2000,532.84,-18.69,31.53,6.16,-409,126,-961,0.57,-0.48,-0.32,0.58,83.02,10.63,-70.44,29.1,277.47,-2000,941.47,16.26,124.34,-95.36,-409,126,-961,0.62,-0.46,-0.33,0.54,79.07,4.78,-69.12,28.17,walking
155,6204299,976.87,-1625.98,1075.62,15.72,6.22,-53.86,-409,126,-961,0.66,-0.39,-0.38,0.51,79.36,-5.66,-65.65,29.12,419.25,-1826.11,791.75,34.72,-26.02,-73.78,-409,126,-961,0.67,-0.37,-0.4,0.51,80.21,-9.48,-64.98,28.19,walking
156,6204357,567.69,-2000,1082.82,19.66,-49.29,-60.66,-409,126,-961,0.68,-0.33,-0.41,0.5,81.41,-13.08,-63.56,29.09,-89.9,-1983.15,910.1,10.43,-36.5,-63.19,-353,127,-811,0.67,-0.35,-0.4,0.51,81.68,-10.81,-63.82,28.2,walking
157,6204413,420.17,-1974.61,1215.7,16.25,-29.78,-52.92,-353,127,-811,0.68,-0.33,-0.4,0.51,81.45,-12.34,-61.91,29.1,-75.87,-2000,859.01,12.54,-12.73,-42.7,-353,127,-811,0.67,-0.35,-0.39,0.52,81.39,-9.61,-62.89,28.2,walking
158,6204470,318.73,-1960.82,1125.55,19.73,-16.25,-64.78,-353,127,-811,0.68,-0.33,-0.39,0.52,80.81,-11.07,-61.42,29.09,-243.9,-1961.49,837.71,4.82,-15.22,-37.05,-226,153,-988,0.67,-0.36,-0.38,0.52,80.3,-7.21,-62.87,28.21,walking
159,6204527,231.02,-1941.16,1013.06,22.32,-25.3,-60.04,-226,153,-988,0.68,-0.35,-0.38,0.52,79.95,-8.67,-62.11,29.1,-285.28,-1941.83,728.88,7.97,-19.31,-39.61,-226,153,-988,0.67,-0.38,-0.37,0.52,79.94,-5.58,-63.81,28.18,walking
160,6204582,142.76,-1991.03,955.75,24.92,-32.43,-57.97,-226,153,-988,0.67,-0.37,-0.38,0.52,80.1,-7,-63.25,29.11,-359.74,-1909.48,776.25,10.31,-15.17,-52.15,-219,160,-809,0.66,-0.39,-0.36,0.53,79.31,-3.62,-64.31,28.21,walking
161,6204639,256.96,-1930.85,1052.73,27.95,-7.07,-58.2,-219,160,-809,0.68,-0.38,-0.36,0.52,78.51,-5.93,-62.73,29.11,-137.21,-1956.54,748.78,15.15,3.57,-60.1,-219,160,-809,0.67,-0.39,-0.36,0.51,77.7,-4.72,-63.96,28.23,walking
162,6204694,310.97,-1986.39,1115.91,21.29,-18.62,-55.58,-219,160,-809,0.69,-0.37,-0.37,0.51,77.53,-7.35,-62.37,29.09,-312.99,-1982.18,778.2,11.86,-12.74,-75.53,-219,160,-809,0.68,-0.39,-0.36,0.51,77.1,-5.16,-63.65,28.19,walking
163,6204752,150.88,-2000,1022.4,16.06,-37.94,-57.59,-195,208,-981,0.69,-0.38,-0.36,0.51,77.23,-6.83,-62.97,29.08,-415.83,-2000,571.78,9.71,-22.2,-105.33,-195,208,-981,0.67,-0.4,-0.36,0.5,76.53,-4.83,-65.59,28.19,walking
164,6204807,1.34,-2000,864.87,-9.67,-63.7,-26.45,-195,208,-981,0.67,-0.4,-0.37,0.51,78.09,-4.92,-66.27,29.08,-476.26,-2000,349.91,16.49,-52.79,-149.51,-195,208,-981,0.65,-0.42,-0.38,0.5,77.84,-4.41,-69.36,28.22,walking
165,6204864,-201.35,-2000,588.81,-53.91,-131.56,10.48,-456,222,-975,0.62,-0.44,-0.4,0.52,82,-2.4,-72.45,29.09,-412.96,-2000,372.13,27.7,-77.82,-165.79,-456,222,-975,0.62,-0.44,-0.41,0.51,81.89,-3.68,-73.53,28.2,walking
166,6204921,521.24,-2000,1235.23,-61.15,-77.68,47.87,-456,222,-975,0.63,-0.41,-0.42,0.52,83.32,-5.76,-71.2,29.09,330.93,-2000,1081.48,43.42,34.41,-94.99,-456,222,-975,0.66,-0.38,-0.4,0.5,80.03,-8.74,-67.07,28.21,walking
167,6204977,730.22,-2000,1225.22,-76.85,-8.57,86.09,-359,213,-986,0.66,-0.38,-0.41,0.5,80.43,-9.04,-67.1,29.11,697.08,-1543.58,1095.64,-4.63,37.16,-4.88,-359,213,-986,0.69,-0.35,-0.4,0.49,78.34,-11.74,-63.9,28.19,walking
168,6205034,900.21,-1962.77,1044.92,-27.08,19.59,104.35,-359,213,-986,0.69,-0.35,-0.4,0.49,78.89,-11.73,-64.33,29.1,465.09,-1467.41,967.29,-24.45,30.37,122.38,-359,213,-986,0.68,-0.36,-0.38,0.51,78.91,-9.21,-63.08,28.19,walking
169,6205090,815.98,-1852.36,945.43,-0.58,33.03,132.82,-359,213,-986,0.68,-0.36,-0.38,0.51,79.46,-8.83,-63.21,29.1,415.04,-1466.19,800.84,-55.3,-8.44,183.55,-470,184,-958,0.65,-0.38,-0.38,0.53,82.15,-5.73,-64.59,28.21,walking
170,6205147,792.24,-1595.28,941.96,8.28,48.26,121.37,-470,184,-958,0.66,-0.36,-0.38,0.53,81.79,-6.86,-63.11,29.09,422.67,-1385.25,776.37,-64.26,-22.99,249.99,-470,184,-958,0.63,-0.38,-0.38,0.56,84.93,-3.18,-64.6,28.2,walking
171,6205203,813.72,-1520.32,846.37,8.48,66.25,69.41,-470,184,-958,0.66,-0.36,-0.38,0.54,82.59,-6.8,-63.26,29.1,356.75,-1692.99,780.46,-61.68,-14.18,249.99,-470,146,-985,0.62,-0.39,-0.38,0.56,85.87,-1.94,-65.78,28.19,walking
172,6205259,450.44,-1778.99,933.04,9.57,-0.54,39.41,-470,146,-985,0.63,-0.37,-0.38,0.56,85.35,-3.99,-64.56,29.1,-156.68,-2000,684.69,-52.4,-65.25,249.99,-470,146,-985,0.58,-0.42,-0.37,0.59,88.75,3.32,-67.83,28.22,walking
173,6205315,-660.28,-1774.29,688.29,48.12,22.77,36.99,-470,146,-985,0.58,-0.44,-0.33,0.6,86.7,9.05,-66.82,29.1,-841,-1567.08,513.92,2.97,-104.82,47.25,-246,208,-961,0.55,-0.47,-0.31,0.62,87.79,14.52,-67.59,28.2,walking
174,6205371,-279.97,-1920.78,730.53,27.15,-118.01,24.79,-246,208,-961,0.55,-0.45,-0.32,0.62,89.09,12.4,-66.52,29.1,-153.38,-1819.58,641.6,37.74,-52.93,-140.82,-246,208,-961,0.59,-0.43,-0.34,0.59,86.29,6.63,-66.65,28.2,walking
175,6205427,231.2,-2000,954.59,-16.42,-60.9,-3.72,-246,208,-961,0.6,-0.41,-0.36,0.58,85.95,2.61,-66.39,29.1,-622.86,-2000,569.7,16.54,93.05,-60.84,-246,208,-961,0.61,-0.46,-0.33,0.56,80.85,6.18,-68.27,28.19,walking
176,6205483,740.78,-1984.86,1226.62,11.65,180.96,-34.74,-470,208,-971,0.67,-0.43,-0.32,0.51,74.47,0.08,-65.18,29.09,438.96,-1706.91,855.53,27.28,99.34,-82.73,-470,208,-971,0.7,-0.41,-0.34,0.48,72.44,-4,-64.02,28.21,walking
177,6205539,760.19,-1781.98,1129.33,17.76,-5.91,-48.54,-470,208,-971,0.71,-0.36,-0.37,0.48,73.73,-10.07,-61.79,29.1,147.16,-2000,763.79,27.38,-53.57,-74.45,-470,208,-971,0.7,-0.36,-0.39,0.48,76.11,-10.97,-63.26,28.19,walking
178,6205598,385.25,-1966.98,1179.63,32.23,-37.38,-64.8,-442,208,-931,0.71,-0.34,-0.39,0.49,76.74,-12.78,-61.09,29.1,-94.42,-1985.6,890.99,21.3,3.35,-50.38,-442,208,-931,0.7,-0.35,-0.37,0.49,76.68,-9.97,-61.65,28.2,walking
179,6205656,381.1,-2000,1182.8,23.78,-21.92,-63.66,-442,208,-931,0.71,-0.34,-0.38,0.49,76.73,-11.75,-60.23,29.1,-106.02,-2000,818.05,9.93,-16.63,-40.1,-442,208,-931,0.69,-0.36,-0.37,0.5,77.34,-8.99,-62.04,28.2,walking
180,6205711,312.38,-1932.68,1060.91,27.01,-28.34,-71.91,-461,227,-953,0.7,-0.34,-0.38,0.5,77.18,-11.05,-60.93,29.09,-418.88,-1933.23,795.84,8.67,-31.88,-37.75,-461,227,-953,0.68,-0.37,-0.36,0.51,77.8,-6.84,-62.43,28.21,walking
181,6205767,110.78,-1958.8,996.89,27.47,-35.74,-56.97,-461,227,-953,0.69,-0.36,-0.37,0.51,78.02,-7.64,-61.82,29.1,-316.71,-1948.06,739.93,12.96,-20.32,-48.9,-461,227,-953,0.67,-0.39,-0.36,0.52,78.06,-4.66,-63.5,28.2,walking
182,6205825,140.99,-1959.23,1025.7,30.72,-17.36,-60.52,-461,227,-953,0.68,-0.37,-0.36,0.51,77.69,-6.14,-62.28,29.08,-224.85,-1912.35,799.87,12.99,2.88,-58.78,-442,263,-988,0.68,-0.39,-0.35,0.51,76.49,-3.99,-63.33,28.21,walking
183,6205881,339.11,-1936.16,1079.47,23.06,-13.66,-62.06,-442,263,-988,0.69,-0.37,-0.36,0.5,75.94,-6.99,-61.99,29.1,-195.37,-2000,730.59,15.34,-5.2,-70.07,-442,263,-988,0.69,-0.39,-0.35,0.5,75.48,-5.5,-63.62,28.18,walking
184,6205937,209.96,-1975.04,1070.74,23.96,-28.41,-64.91,-442,263,-988,0.7,-0.37,-0.36,0.5,75.56,-7.55,-62.3,29.09,-323.97,-2000,695.62,8.55,-5.17,-91.34,-442,263,-988,0.69,-0.4,-0.35,0.49,74.97,-5.52,-64.24,28.19,walking
185,6205994,94.79,-2000,896.48,5.71,-23.32,-58.91,-441,237,-899,0.69,-0.39,-0.36,0.49,75.48,-6.5,-64.55,29.1,-481.51,-2000,593.69,13.41,-20.68,-125.85,-441,237,-899,0.68,-0.41,-0.36,0.49,75.18,-4.74,-66.37,28.2,walking
186,6206050,-171.75,-2000,671.75,-22.27,-90.88,-9.39,-441,237,-899,0.65,-0.42,-0.37,0.51,78,-3.32,-68.53,29.09,-504.64,-2000,212.46,15.36,-82.92,-180.13,-441,237,-899,0.64,-0.44,-0.39,0.49,78.35,-4.12,-72.22,28.19,walking
187,6206106,271.36,-2000,711.61,-85.34,-118.99,27.53,-463,-99,-985,0.59,-0.42,-0.44,0.53,87.19,-4.43,-74.42,29.1,201.48,-2000,1111.02,35.1,-66.29,-125.46,-463,-99,-985,0.61,-0.37,-0.44,0.55,89.87,-8,-70.22,28.2,walking
188,6206164,462.65,-2000,1265.56,-71.84,-53.87,64.8,-463,-99,-985,0.59,-0.35,-0.45,0.57,93.31,-7.56,-68.98,29.09,598.51,-2000,984.25,15.05,39.66,-64.48,-463,-99,-985,0.61,-0.33,-0.45,0.56,92.12,-10.8,-66.97,28.17,walking
189,6206219,1048.4,-2000,1044.68,-68.25,54.77,99,-226,-109,-981,0.61,-0.32,-0.46,0.55,92.23,-11.78,-67.72,29.1,369.45,-1543.58,924.68,-4.95,5.71,55.92,-226,-109,-981,0.61,-0.32,-0.44,0.57,92.78,-10.48,-65.7,28.19,walking
190,6206275,920.72,-1926.94,1010.38,-11.22,23.29,126.72,-226,-109,-981,0.61,-0.31,-0.44,0.58,93.98,-10.54,-65.27,29.09,472.96,-1465.39,895.2,-43.52,0.78,156.97,-226,-109,-981,0.59,-0.32,-0.44,0.6,95.49,-8.05,-64.99,28.2,walking
191,6206332,795.78,-1739.75,998.78,1.79,35.51,133.93,-226,-109,-981,0.6,-0.31,-0.43,0.6,95.83,-7.97,-63.71,29.1,406.56,-1439.15,863.83,-74.17,-14.88,234.3,-361,-120,-900,0.56,-0.33,-0.43,0.63,99.13,-3.77,-64.9,28.2,walking
192,6206389,826.84,-1477.6,1012.39,10.54,69.96,98.5,-361,-120,-900,0.58,-0.31,-0.42,0.62,97.74,-6.14,-62.21,29.09,394.17,-1581.36,889.77,-77.57,5.01,249.99,-361,-120,-900,0.55,-0.33,-0.42,0.64,100.28,-1.77,-64.13,28.18,walking
193,6206444,587.52,-1591.37,887.88,11,60.75,46.49,-361,-120,-900,0.57,-0.32,-0.41,0.63,98.25,-4.39,-62.8,29.09,-81.05,-1846.25,752.62,-90.41,-4.48,249.99,-403,210,-916,0.55,-0.39,-0.39,0.63,95.85,3.63,-67.28,28.2,walking
194,6206501,63.6,-2000,523.62,-6.02,111.82,56.76,-403,210,-916,0.57,-0.43,-0.37,0.59,88.52,4.73,-69.83,29.08,-194.15,-1661.56,657.23,-17.19,-68.3,165.47,-403,210,-916,0.56,-0.45,-0.35,0.6,89.01,8.53,-69.65,28.18,walking
195,6206557,-397.95,-2000,535.58,30.53,-120.9,37.96,-403,210,-916,0.55,-0.45,-0.35,0.61,89.32,8.95,-69.74,29.09,-267.09,-1602.84,822.75,42.59,-135.7,-68.98,-468,213,-986,0.58,-0.42,-0.35,0.61,89.43,5.36,-66.11,28.18,walking
196,6206614,58.04,-1866.21,1106.93,45.85,-100.4,-8.36,-468,213,-986,0.6,-0.38,-0.35,0.6,89.12,2.1,-62.79,29.11,-1387.63,-2000,540.04,14.9,18.83,-28.29,-468,213,-986,0.59,-0.45,-0.31,0.6,85.22,9.98,-65.57,28.18,walking
197,6206670,-1008.54,-2000,363.28,-8.41,43.3,-10.29,-468,213,-986,0.57,-0.5,-0.29,0.58,81.23,14.91,-70.08,29.1,432.01,-2000,888.73,31.95,177.59,-108.8,-468,213,-986,0.63,-0.48,-0.3,0.53,74.75,7.03,-69.23,28.2,walking
198,6206726,1173.52,-1682.62,1225.4,18.4,91.34,-37.2,-468,237,-986,0.69,-0.42,-0.34,0.48,72.39,-3.68,-64.95,29.1,600.04,-1783.87,832.64,53.02,-22.62,-80.45,-468,237,-986,0.7,-0.38,-0.37,0.47,73.38,-9.09,-63.68,28.2,walking
199,6206783,611.15,-2000,1189.64,36.01,-61.33,-61.67,-468,237,-986,0.71,-0.34,-0.39,0.47,75.34,-13.38,-61.47,29.1,-153.38,-2000,876.1,18.74,-52.07,-68.37,-468,237,-986,0.7,-0.35,-0.38,0.49,76.57,-11.08,-62.37,28.2,walking
200,6206839,417.85,-1998.54,1194.7,29.03,-29,-65.9,-344,249,-894,0.71,-0.34,-0.38,0.48,75.57,-13,-60.42,29.09,-64.33,-2000,780.7,17.91,0.32,-39.85,-344,249,-894,0.71,-0.36,-0.37,0.48,75.09,-10.15,-62.05,28.19,walking
201,6206896,358.52,-1949.4,1080.57,29.76,-22.8,-71.72,-344,249,-894,0.72,-0.35,-0.38,0.48,74.47,-11.99,-60.8,29.07,-303.34,-1963.99,823.36,10.35,-25.85,-37.25,-344,249,-894,0.7,-0.37,-0.36,0.49,74.81,-7.93,-62.31,28.2,walking
202,6206952,95.09,-1935.55,983.4,34.54,-23.66,-62,-470,252,-978,0.7,-0.37,-0.36,0.49,75.25,-8.29,-61.46,29.09,-268.43,-1926.57,707.95,18.88,-1.14,-43.53,-470,252,-978,0.69,-0.39,-0.35,0.5,75.4,-5.22,-63.11,28.22,walking
203,6207008,230.96,-2000,1005,32.92,-16.9,-62,-470,252,-978,0.7,-0.38,-0.36,0.5,75.47,-7.15,-62.24,29.07,-297.49,-1975.77,779.05,16.86,-18.3,-53.89,-470,252,-978,0.68,-0.39,-0.35,0.5,75.81,-4.58,-63.47,28.19,walking
204,6207064,365.05,-1902.83,1094.6,30.27,-17.52,-61.55,-409,235,-873,0.7,-0.37,-0.36,0.5,75.48,-7.89,-61.56,29.09,-110.41,-1968.32,800.96,19.5,-5.64,-61.94,-409,235,-873,0.69,-0.38,-0.35,0.5,75.21,-6.52,-62.68,28.19,walking
205,6207121,297.73,-1969.24,1166.56,27.51,-32.18,-62.21,-409,235,-873,0.7,-0.36,-0.36,0.49,75.38,-8.84,-60.92,29.08,-379.58,-2000,713.26,13.03,-6.97,-75.14,-409,235,-873,0.69,-0.39,-0.35,0.5,75.05,-5.73,-63,28.17,walking
206,6207178,102.23,-2000,933.04,18.42,-26.12,-68.14,-409,235,-873,0.69,-0.38,-0.36,0.49,75.25,-6.92,-63.02,29.06,-476.56,-2000,572.94,11.13,-16.35,-106.44,-470,228,-853,0.68,-0.41,-0.35,0.49,75.16,-4.29,-65.71,28.18,walking
207,6207234,-11.47,-2000,930.79,4.09,-45.56,-34.29,-470,228,-853,0.67,-0.41,-0.36,0.5,76.51,-4.35,-65.48,29.1,-465.82,-2000,340.76,18.97,-55.1,-152.98,-470,228,-853,0.66,-0.42,-0.37,0.49,76.66,-4.18,-68.66,28.17,walking
208,6207291,-216.67,-2000,520.51,-48.94,-124.75,15.29,-470,228,-853,0.62,-0.44,-0.39,0.51,80.46,-2.03,-72.18,29.08,-394.23,-2000,409.06,19.27,-94.31,-164.22,-458,-97,-858,0.6,-0.42,-0.42,0.54,86.09,-2.77,-73.43,28.2,walking
209,6207347,494.32,-2000,1316.35,-67.23,-89.41,49.48,-458,-97,-858,0.58,-0.38,-0.44,0.57,91.48,-4.19,-70.91,29.08,238.22,-2000,1232.97,30.46,55,-98.48,-458,-97,-858,0.61,-0.35,-0.42,0.57,90.23,-6.52,-66.48,28.17,walking
210,6207403,924.26,-2000,1217.77,-80.92,25.34,89.74,-458,-97,-858,0.61,-0.34,-0.44,0.57,92.19,-8.06,-66.77,29.1,681.58,-1519.35,1034.79,-4.71,53.91,-8.26,-470,-65,-873,0.63,-0.31,-0.43,0.57,90.88,-11.1,-63.75,28.2,walking
211,6207460,948.36,-2000,1014.47,-32.61,14.64,106.47,-470,-65,-873,0.62,-0.31,-0.44,0.57,92.77,-11.5,-64.68,29.09,490.6,-1518.43,998.11,-23.56,18.46,118.35,-470,-65,-873,0.61,-0.31,-0.43,0.59,93.75,-9.4,-63.38,28.19,walking
212,6207517,856.93,-1855.71,973.39,-5.73,29.46,134.18,-470,-65,-873,0.61,-0.3,-0.43,0.59,94.84,-9.22,-63.42,29.09,449.65,-1422.18,867.49,-55.31,-9.91,185.42,-141,-85,-833,0.58,-0.32,-0.43,0.61,96.81,-6.25,-64.03,28.22,walking
213,6207573,829.16,-1592.47,993.41,4.16,45.26,124.38,-141,-85,-833,0.59,-0.31,-0.42,0.61,96.4,-7.22,-62.42,29.08,474.49,-1355.1,835.94,-66.8,-32.04,249.99,-141,-85,-833,0.56,-0.32,-0.42,0.64,99.52,-3.92,-63.57,28.19,walking
214,6207629,843.08,-1497.38,914.98,16.2,57.6,68.29,-141,-85,-833,0.59,-0.3,-0.42,0.62,97.51,-7.27,-61.63,29.1,347.29,-1750.61,759.46,-63.62,-13.31,249.99,-141,-85,-833,0.55,-0.33,-0.42,0.64,100.09,-2.13,-64.96,28.2,walking
215,6207686,402.89,-1916.32,892.76,5.2,9.88,57.88,-307,358,-880,0.6,-0.36,-0.39,0.6,91.27,-2.12,-64.75,29.1,10.74,-2000,727.72,-44.01,-40.72,249.99,-307,358,-880,0.58,-0.42,-0.37,0.6,89.3,3.98,-67.59,28.19,walking
216,6207741,-466.74,-1764.89,757.63,50.88,7.95,28.87,-307,358,-880,0.6,-0.45,-0.32,0.59,83.83,8.2,-66.04,29.09,-626.77,-1584.84,585.57,5.91,-98.94,42.24,-307,358,-880,0.59,-0.47,-0.3,0.59,82.92,11.82,-66.57,28.19,walking
217,6207797,-168.95,-1872.38,746.77,32.14,-105.93,10.86,-468,319,-771,0.61,-0.45,-0.31,0.58,81.89,8.47,-65.41,29.1,-533.57,-2000,499.33,33.94,-40.94,-114.75,-468,319,-771,0.63,-0.46,-0.31,0.55,78.12,6.71,-67.15,28.18,walking
218,6207853,-334.84,-2000,838.07,-14.17,-26.05,2.27,-468,319,-771,0.63,-0.47,-0.3,0.54,76.42,6.85,-67.44,29.09,-255.55,-2000,711.79,27.25,125.72,-115.62,-468,319,-771,0.67,-0.48,-0.29,0.5,70.07,5.14,-67.84,28.18,walking
219,6207910,977.54,-1764.77,1411.8,-1.16,221.3,-34.97,-468,319,-771,0.73,-0.44,-0.28,0.44,63.6,-1.13,-63.72,29.07,285.89,-1593.14,1041.75,24.94,49.21,-80.43,-334,341,-799,0.75,-0.41,-0.29,0.43,62.56,-4.87,-60.89,28.2,walking
220,6207966,649.72,-1949.46,1014.47,37.2,-56.16,-55.44,-334,341,-799,0.75,-0.38,-0.33,0.42,64.76,-10.38,-60.4,29.09,41.5,-2000,619.02,25.5,-43.33,-70.24,-334,341,-799,0.74,-0.4,-0.35,0.42,66.26,-10.2,-63.07,28.19,walking
221,6208023,380.43,-1988.83,1097.9,25.63,-17.71,-61.1,-334,341,-799,0.74,-0.38,-0.35,0.42,66.38,-11.84,-61.68,29.09,-71.23,-1945.25,942.38,25.41,21.93,-46.66,-470,338,-809,0.74,-0.39,-0.33,0.44,66.65,-8.68,-61.47,28.19,walking
222,6208079,414.31,-2000,1124.63,25.98,33.69,-55.83,-470,338,-809,0.75,-0.38,-0.34,0.43,66.17,-9.89,-60.36,29.08,-85.39,-1997.19,783.75,10.01,-18.11,-37.61,-470,338,-809,0.73,-0.4,-0.33,0.45,67.71,-7.58,-62.42,28.18,walking
223,6208136,364.2,-1946.84,1073,30.46,-22.71,-63.64,-470,338,-809,0.74,-0.38,-0.35,0.44,68.23,-9.86,-61.23,29.07,-369.69,-1942.63,808.35,9.94,-23.46,-31.65,-414,340,-771,0.72,-0.41,-0.33,0.46,68.88,-5.32,-62.77,28.19,walking
224,6208191,150.82,-1988.89,1007.63,27.08,-28.08,-54.63,-414,340,-771,0.72,-0.4,-0.33,0.46,68.95,-6.57,-62.15,29.08,-295.29,-1934.57,760.99,10.39,-16.95,-37.75,-414,340,-771,0.71,-0.42,-0.32,0.47,69.08,-3.7,-63.63,28.17,walking
225,6208248,206.85,-1969.6,1060.85,35.09,-17.39,-57.17,-414,340,-771,0.72,-0.4,-0.33,0.46,68.72,-5.91,-62,29.08,-382.57,-1955.99,761.41,13.65,-3.68,-48.38,-414,340,-771,0.71,-0.42,-0.31,0.47,68.43,-2.81,-63.39,28.19,walking
226,6208305,240.23,-1925.23,1027.04,31.15,-15.35,-55.3,-442,317,-546,0.73,-0.4,-0.32,0.45,67.29,-5.71,-61.91,29.07,-226.2,-1945.92,767.52,16.81,-1.76,-62.35,-442,317,-546,0.72,-0.42,-0.31,0.45,66.51,-4.14,-63.11,28.19,walking
227,6208361,268.19,-1908.57,1142.94,21.31,-38.56,-52.41,-442,317,-546,0.74,-0.4,-0.32,0.44,66.61,-6.87,-61.33,29.07,-244.02,-2000,728.33,12.07,-10.69,-79.82,-442,317,-546,0.73,-0.42,-0.32,0.44,66.11,-5.34,-63.26,28.18,walking
228,6208417,196.78,-2000,1005.43,6.88,-31.45,-58.53,-468,319,-528,0.73,-0.41,-0.33,0.44,66.23,-7.26,-63.08,29.08,-458.07,-2000,509.03,8.4,-8.13,-105.14,-468,319,-528,0.72,-0.44,-0.32,0.43,65.68,-4.82,-65.95,28.19,walking
229,6208474,-52.12,-2000,852.66,-6.13,-30.63,-23.56,-468,319,-528,0.71,-0.44,-0.32,0.44,66.33,-4,-66.45,29.06,-479.68,-2000,241.94,22.53,-53.05,-158.17,-468,319,-528,0.7,-0.47,-0.34,0.43,66.14,-3.97,-70.19,28.18,walking
230,6208529,-156.37,-2000,391.11,-68.58,-175.6,14.29,-322,-19,-501,0.62,-0.47,-0.38,0.5,78.26,-0.46,-74.81,29.08,-273.19,-2000,492.37,30.11,-114.55,-178.52,-322,-19,-501,0.6,-0.44,-0.41,0.52,83.18,-2.57,-74.53,28.19,walking
231,6208586,517.76,-2000,1295.41,-66.53,-87.37,46.52,-322,-19,-501,0.6,-0.4,-0.43,0.55,88.35,-4.09,-71.75,29.07,355.04,-2000,1359.86,35.86,74.63,-102.43,-322,-19,-501,0.63,-0.36,-0.41,0.55,86.33,-7,-66.24,28.16,walking
232,6208643,1056.88,-2000,1327.27,-80.31,29.08,83.11,-322,-19,-501,0.63,-0.34,-0.42,0.55,88.2,-9.04,-66.01,29.08,677.55,-1555.11,1031.8,-2.46,32.45,-3.31,-36,33,-529,0.66,-0.33,-0.42,0.54,85.54,-11.38,-63.34,28.19,walking
233,6208700,968.81,-1946.53,998.11,-27.67,18.88,107.31,-36,33,-529,0.66,-0.33,-0.42,0.53,85.48,-11.56,-64.18,29.09,492.19,-1388.49,930.36,-19.07,21.65,114.32,-36,33,-529,0.66,-0.34,-0.4,0.54,85.04,-9.49,-62.77,28.16,walking
234,6208756,847.35,-1850.89,941.77,-2.16,28.53,131.22,-36,33,-529,0.65,-0.34,-0.4,0.54,85.39,-9.1,-63.11,29.09,417.66,-1449.04,811.89,-54.67,-0.07,174.1,-90,317,-492,0.66,-0.39,-0.37,0.52,79.66,-5.01,-64.93,28.16,walking
235,6208811,827.39,-1611.51,960.51,8.04,42.89,118.78,-90,317,-492,0.7,-0.4,-0.35,0.49,73.51,-5.56,-63.56,29.1,421.63,-1372.13,858.7,-64.91,-29.93,249.99,-90,317,-492,0.69,-0.42,-0.33,0.49,72.57,-1.63,-64.6,28.16,walking
236,6208868,801.82,-1523.62,934.57,18.18,46.65,71.62,-90,317,-492,0.72,-0.41,-0.32,0.46,67.54,-4.72,-62.64,29.08,432.37,-1691.28,688.96,-57.13,-25.94,249.99,-409,434,-539,0.7,-0.44,-0.32,0.47,68.77,-1.76,-65.64,28.17,walking
237,6208924,565.06,-1793.58,754.52,14.14,-26.95,41.73,-409,434,-539,0.72,-0.43,-0.33,0.44,66.71,-5.75,-65.34,29.1,-154.66,-2000,803.77,-21,-119.93,249.99,-409,434,-539,0.68,-0.46,-0.31,0.48,69.93,0.88,-66.77,28.18,walking
238,6208981,-406.31,-1904.6,983.58,73.46,-53.25,46.11,-409,434,-539,0.7,-0.45,-0.27,0.49,68.31,3.8,-63.03,29.08,-669.07,-1657.17,669.49,-0.39,-185.23,90.13,-409,434,-539,0.67,-0.46,-0.26,0.52,70.56,7.67,-63.68,28.18,walking
239,6209037,-378.05,-1956.12,704.65,38.35,-153.69,30.04,-238,442,-555,0.67,-0.47,-0.26,0.51,70.12,7.75,-64.15,29.08,-240.17,-1624.76,583.31,38.22,-100.75,-128.16,-238,442,-555,0.7,-0.46,-0.27,0.48,66.74,4.03,-64.75,28.16,walking
240,6209093,526.98,-1926.57,1339.9,4.76,-59.08,-42.33,-238,442,-555,0.73,-0.43,-0.29,0.44,63.99,-2.54,-61.79,29.07,-1324.34,-2000,817.81,-11.84,153.52,15.14,-238,442,-555,0.72,-0.49,-0.2,0.44,57.67,8.31,-64.03,28.18,walking
241,6209149,-281.31,-2000,1009.83,-18.39,125.35,-33.86,-456,482,-445,0.74,-0.51,-0.17,0.4,51.41,8.4,-64.64,29.08,167.72,-2000,703.43,17.87,180.43,-68.7,-456,482,-445,0.76,-0.52,-0.18,0.35,45.63,5.33,-66.3,28.17,walking
242,6209206,1046.81,-1708.37,952.51,22.55,115.64,-38.51,-456,482,-445,0.79,-0.49,-0.22,0.29,43.08,-3.4,-64.63,29.09,212.83,-1871.09,1001.95,29.5,-61.37,-66.88,-456,482,-445,0.79,-0.47,-0.25,0.31,46.09,-5.96,-63.64,28.16,walking
243,6209263,360.05,-2000,1285.71,22.96,-60.07,-47.58,-414,483,-528,0.79,-0.44,-0.27,0.32,49.3,-8.43,-61.63,29.09,-278.5,-2000,921.75,16.84,-20.17,-53.95,-414,483,-528,0.78,-0.45,-0.26,0.34,50.72,-5.61,-62.29,28.16,walking
244,6209318,376.1,-1956.48,1044.13,31.83,-17.8,-47.99,-414,483,-528,0.79,-0.43,-0.28,0.34,51.64,-8.08,-61.4,29.08,-103.21,-1986.94,763.37,15.95,-12.31,-41.97,-414,483,-528,0.78,-0.45,-0.27,0.35,52.57,-6.18,-63.09,28.18,walking
245,6209375,350.89,-1940.73,1105.29,25.22,-32.57,-51.05,-414,483,-528,0.78,-0.43,-0.29,0.35,53.27,-8.66,-61.67,29.07,-303.83,-1931.46,836.43,10.77,-39.54,-34.61,-468,483,-548,0.77,-0.45,-0.27,0.37,55.03,-5.11,-62.95,28.19,walking
246,6209432,215.09,-1932.56,1056.64,30.09,-56.47,-41.63,-468,483,-548,0.77,-0.43,-0.29,0.37,56.23,-6.88,-61.84,29.08,-338.75,-1981.81,782.41,13.05,-37.61,-37.25,-468,483,-548,0.76,-0.45,-0.28,0.39,57.02,-3.9,-63.36,28.18,walking
247,6209488,148.86,-1960.27,1117.13,28.45,-30.56,-45.39,-468,483,-548,0.77,-0.43,-0.28,0.39,56.92,-5.53,-61.6,29.07,-428.53,-1916.32,815.67,12.75,-6.96,-41.94,-359,319,-487,0.75,-0.45,-0.26,0.41,58.24,-1.68,-62.79,28.18,walking
248,6209546,204.83,-1935.42,1005.19,31.27,-10.96,-43.07,-359,319,-487,0.75,-0.43,-0.28,0.41,59.06,-3.77,-61.95,29.08,-188.42,-1925.9,767.94,19.03,-13.07,-52.94,-359,319,-487,0.75,-0.44,-0.28,0.41,59.74,-2.66,-63.18,28.16,walking
249,6209601,348.39,-1965.7,1106.38,26.38,-53.94,-34.65,-359,319,-487,0.75,-0.42,-0.3,0.41,61.4,-6.02,-61.82,29.08,-234.25,-1948.49,874.39,22.82,-38.65,-66.83,-304,317,-421,0.75,-0.43,-0.29,0.41,60.99,-4.83,-62.27,28.16,walking
250,6209658,173.77,-2000,1113.28,27.61,-72.04,-37.51,-304,317,-421,0.75,-0.41,-0.3,0.41,61.72,-6.64,-61.2,29.07,-479.49,-1982.85,672.85,19.4,-39.47,-89.01,-304,317,-421,0.74,-0.44,-0.29,0.41,61.13,-4.25,-63.25,28.17,walking
251,6209713,-34.61,-2000,891.72,0.33,-58.19,-18.21,-304,317,-421,0.74,-0.44,-0.3,0.42,61.84,-4.08,-64.05,29.07,-482.54,-2000,388.31,30.49,-52.65,-134.03,-304,317,-421,0.73,-0.46,-0.3,0.41,61.01,-3.5,-67.19,28.16,walking
252,6209769,-73,-2000,306.58,-33.29,-123.92,30.75,-222,461,-125,0.74,-0.49,-0.3,0.36,56.08,-4.88,-69.82,29.07,-248.05,-2000,-57.86,55.41,-116.04,-185.85,-222,461,-125,0.75,-0.5,-0.31,0.3,50.65,-9.47,-71.54,28.18,walking
253,6209826,718.81,-2000,857.12,-73.7,-166.29,50.19,-222,461,-125,0.77,-0.48,-0.33,0.27,49.17,-14.2,-70.58,29.07,505.92,-1926.82,967.96,88.47,-116.36,-98.19,-222,461,-125,0.81,-0.43,-0.33,0.24,45.01,-19.44,-63.66,28.18,walking
254,6209884,800.05,-2000,1085.51,-58.14,-110.34,84.45,-138,317,-121,0.8,-0.43,-0.34,0.24,45.63,-19.63,-64.86,29.08,727.05,-1736.51,870.67,65.04,-40.95,-20.7,-138,317,-121,0.82,-0.41,-0.33,0.22,42.96,-21.72,-61.66,28.18,walking
255,6209940,932.8,-1798.83,865.84,-27.63,-48.45,112.76,-138,317,-121,0.81,-0.42,-0.34,0.22,43.55,-21.24,-63.23,29.07,445.68,-1315.49,713.38,49.94,-46.03,111.51,-138,317,-121,0.82,-0.42,-0.31,0.24,43.4,-18.62,-61.28,28.19,walking
256,6209997,855.04,-1854.74,838.01,7,-66.23,132.23,-239,386,-10,0.82,-0.41,-0.32,0.24,43.68,-19.04,-60.83,29.06,474.61,-1448.12,598.88,8.71,-55.08,173.98,-239,386,-10,0.82,-0.42,-0.31,0.25,44.46,-16.72,-61.18,28.18,walking
257,6210054,787.72,-1690.49,854.49,9.92,-32.69,125.25,-239,386,-10,0.83,-0.41,-0.3,0.24,43.03,-17.44,-59.37,29.07,425.96,-1445.13,604.68,-19.14,-70.5,249.99,-239,386,-10,0.81,-0.43,-0.29,0.27,45.3,-13.51,-61.19,28.19,walking
258,6210110,768.98,-1575.5,905.7,10.02,-14.77,77.45,-239,386,-10,0.83,-0.4,-0.29,0.24,41.74,-16.32,-57.78,29.07,466.67,-1571.17,711.36,-37.96,-83.44,249.99,-466,427,43,0.8,-0.43,-0.28,0.29,47.24,-11.67,-61.8,28.19,walking
259,6210166,502.75,-1667.3,1013.67,15.34,-59.34,33.76,-466,427,43,0.82,-0.41,-0.29,0.29,46.76,-13.92,-58.91,29.07,14.28,-2000,865.6,-47.97,-145.74,249.99,-466,427,43,0.78,-0.44,-0.28,0.34,52.23,-7.68,-62.24,28.17,walking
260,6210222,-640.93,-1912.78,1058.11,54.79,-76.39,43.02,-466,427,43,0.79,-0.42,-0.23,0.37,51.58,-3.08,-57.74,29.08,-770.2,-1338.93,373.78,-33.55,-214.29,60.4,-304,334,144,0.78,-0.44,-0.21,0.39,52.45,0.75,-57.76,28.17,walking
261,6210278,-603.88,-2000,549.38,-1.61,-181.49,28.05,-304,334,144,0.79,-0.43,-0.21,0.38,51.29,-0.02,-56.84,29.08,-110.11,-1638.92,745.24,11.11,-94.19,-154.53,-304,334,144,0.83,-0.39,-0.22,0.32,45.25,-6.79,-53.47,28.14,walking
262,6210335,671.87,-2000,1189.64,-67.65,-123.7,-10.06,-304,334,144,0.84,-0.37,-0.27,0.28,44.03,-14.16,-53.28,29.08,-492.92,-1897.28,923.58,16.26,15.79,-37.15,-361,-51,-74,0.79,-0.43,-0.2,0.4,52.89,1.8,-56.42,28.19,walking
263,6210391,56.52,-2000,624.15,10.7,219.03,-26.5,-361,-51,-74,0.75,-0.49,-0.17,0.41,52.65,9.27,-62.12,29.07,112.06,-1742.55,579.83,16.93,68.91,-79.7,-361,-51,-74,0.73,-0.52,-0.18,0.41,53.14,9.62,-66.16,28.15,walking
264,6210446,1004.15,-1597.35,1325.68,-3.33,-10.41,-33.29,-361,-51,-74,0.74,-0.48,-0.23,0.42,56.61,3.66,-63.96,29.05,274.35,-2000,1043.4,24,-43.36,-63.16,-361,-51,-74,0.72,-0.47,-0.24,0.44,60.73,4.02,-64.03,28.16,walking
265,6210503,601.99,-2000,1327.7,19.29,-61.35,-46.62,-356,319,-92,0.78,-0.41,-0.27,0.38,55.96,-6.09,-58.48,29.05,-201.23,-1990.42,865.48,7.58,-56.85,-45.29,-356,319,-92,0.78,-0.42,-0.27,0.37,54.47,-6.19,-59.35,28.17,walking
266,6210559,303.65,-1998.17,1227.36,17.91,-24.22,-44.3,-356,319,-92,0.8,-0.4,-0.27,0.35,51.97,-9.18,-57.39,29.07,-177.12,-2000,916.81,7.84,1.54,-26.91,-356,319,-92,0.8,-0.42,-0.25,0.34,50.46,-6.74,-58.72,28.18,walking
267,6210614,372.92,-1898.32,1196.41,20.48,-19.51,-52.08,-470,-58,-104,0.77,-0.43,-0.24,0.41,57.32,-1.3,-59.1,29.05,-283.14,-1901.18,894.23,1.08,-55.68,-25.92,-470,-58,-104,0.72,-0.45,-0.23,0.47,62.72,4.96,-61.21,28.19,walking
268,6210672,156.31,-1957.95,1111.57,29.95,-60.36,-42.07,-470,-58,-104,0.7,-0.44,-0.25,0.5,67.54,4.99,-60.9,29.06,-422.85,-1995,795.23,6.9,-37.82,-30.38,-470,-58,-104,0.67,-0.46,-0.25,0.52,70.77,9.02,-63.06,28.17,walking
269,6210727,83.98,-1953.61,1065.06,30.27,-40.13,-43.08,-327,-51,-94,0.66,-0.44,-0.27,0.54,74.25,7.25,-62.09,29.06,-390.69,-1901.25,789.98,9.41,-15.39,-42.82,-327,-51,-94,0.64,-0.46,-0.27,0.56,76.31,9.65,-63.45,28.17,walking
270,6210783,292.18,-1926.33,1040.22,17.17,-43.46,-37.83,-327,-51,-94,0.64,-0.43,-0.3,0.56,79.05,5.4,-62.66,29.08,-224.06,-1963.01,803.77,14.1,-26.58,-54.6,-327,-51,-94,0.63,-0.43,-0.31,0.57,81.08,6.35,-63.7,28.2,walking
271,6210839,398.68,-1959.78,1140.63,17.11,-58.86,-32.22,-327,-51,-94,0.63,-0.39,-0.33,0.58,84.19,2.15,-62.15,29.06,-148.74,-1957.21,854.13,15.43,-36.58,-64.98,-466,-106,-71,0.61,-0.4,-0.33,0.6,86.69,3.86,-62.53,28.19,walking
272,6210896,240.6,-1961.18,1131.65,19.05,-58.2,-38.72,-466,-106,-71,0.61,-0.37,-0.35,0.61,89.52,2.02,-61.03,29.06,-317.26,-2000,717.96,14.81,-32.37,-80.25,-466,-106,-71,0.59,-0.38,-0.35,0.62,91,3.8,-62.65,28.16,walking
273,6210951,208.31,-2000,999.51,6.19,-48.36,-42.29,-466,-106,-71,0.58,-0.36,-0.37,0.63,93.3,1.51,-62.37,29.07,-272.28,-1996.22,673.16,18.49,-42.53,-106.48,-451,-97,-35,0.57,-0.37,-0.38,0.63,94.36,2.1,-63.93,28.19,walking
274,6211008,67.38,-2000,861.39,5.34,-82.89,-9.7,-451,-97,-35,0.55,-0.36,-0.39,0.64,97.53,1.71,-64.06,29.07,-459.17,-2000,273.74,26.21,-88.8,-151.91,-451,-97,-35,0.54,-0.37,-0.41,0.63,98.75,1.54,-67.56,28.16,walking
275,6211064,162.05,-2000,259.16,-87.03,-181.09,25.34,-451,-97,-35,0.49,-0.37,-0.47,0.64,104.68,0.42,-73.39,29.07,-26.49,-2000,478.45,36.51,-159.77,-164.05,-451,-97,-35,0.49,-0.33,-0.5,0.64,108.33,-3.67,-72.74,28.19,walking
276,6211121,550.42,-2000,1206.6,-72.51,-127.96,44.03,-463,181,-108,0.54,-0.26,-0.52,0.61,107.55,-13.66,-70.41,29.07,446.84,-2000,1152.22,36.99,1.24,-100.65,-463,181,-108,0.59,-0.22,-0.51,0.59,103.1,-19.64,-66.17,28.18,walking
277,6211177,1040.89,-2000,1158.57,-80.79,-9.16,88.08,-463,181,-108,0.6,-0.22,-0.52,0.57,101.94,-21.68,-67.34,29.08,459.29,-1487.12,931.46,26.89,-16.3,6,-463,181,-108,0.61,-0.21,-0.5,0.57,100.09,-21.97,-64.17,28.17,walking
278,6211234,910.71,-2000,953.92,-23.13,-15.33,115.26,-451,155,-123,0.6,-0.22,-0.51,0.57,100.81,-20.94,-65.86,29.07,550.23,-1529.54,792.05,7.67,-2.43,130.98,-451,155,-123,0.6,-0.24,-0.5,0.58,100.82,-18.73,-65.49,28.16,walking
279,6211290,838.93,-1851.93,798.89,-5.93,-22.14,142.96,-451,155,-123,0.59,-0.24,-0.51,0.58,101.62,-18.66,-66.88,29.07,450.68,-1462.46,591.61,-26.85,-51.12,197.99,-451,155,-123,0.57,-0.26,-0.51,0.59,103.6,-15.77,-69.1,28.14,walking
280,6211347,759.4,-1603.82,899.35,0.84,-0.79,134.46,-459,98,-118,0.57,-0.25,-0.5,0.6,103.45,-15.62,-67.26,29.08,388.55,-1411.32,810,-41.96,-63.22,249.99,-459,98,-118,0.54,-0.27,-0.49,0.63,105.98,-11.23,-67.75,28.16,walking
281,6211403,682.8,-1491.58,1046.69,14.84,7.99,80.87,-459,98,-118,0.57,-0.24,-0.48,0.62,103.93,-14.51,-64.17,29.05,408.87,-1724.98,894.78,-60.71,-36.66,249.99,-459,98,-118,0.54,-0.27,-0.48,0.64,106.11,-10.13,-66.51,28.16,walking
282,6211460,549.13,-1848.21,979.49,10.12,-22.23,38.75,-459,98,-118,0.56,-0.25,-0.49,0.62,104.61,-13.82,-65.37,29.06,-173.95,-2000,808.96,-42.69,-159.75,249.99,-456,-106,-111,0.46,-0.3,-0.47,0.69,113.72,-1.37,-67.35,28.18,walking
283,6211517,-794.13,-1746.15,906.8,61.58,-56.24,53.83,-456,-106,-111,0.43,-0.32,-0.43,0.73,115.65,5.59,-64.53,29.05,-881.41,-1645.45,791.32,13,-174.41,34.62,-456,-106,-111,0.4,-0.32,-0.42,0.75,118.92,8.22,-64.15,28.17,walking
284,6211572,-496.64,-1919.13,798.03,42.61,-95.47,0.82,-456,-106,-111,0.41,-0.31,-0.44,0.74,119.08,6.03,-64.39,29.1,-13.37,-1591.55,668.64,47.82,18.29,-173.96,-470,-92,70,0.45,-0.28,-0.45,0.71,115.94,-0.66,-64.45,28.16,walking
285,6211630,962.22,-2000,1236.33,-27.63,-30.27,-81.47,-470,-92,70,0.48,-0.23,-0.48,0.7,115.9,-8.17,-63.37,29.09,-693.66,-1823.85,517.52,-0.66,172.65,-17.86,-470,-92,70,0.46,-0.31,-0.43,0.71,112.55,2.76,-64.71,28.16,walking
286,6211685,278.44,-2000,1113.83,-4.53,182.79,-53.88,-470,-92,70,0.5,-0.32,-0.42,0.69,107.36,1.31,-63.72,29.09,112.85,-1906.8,672.61,28.19,172.56,-82.24,-436,-10,-125,0.55,-0.34,-0.42,0.64,99.54,-2.21,-65.09,28.15,walking
287,6211749,958.37,-1542.18,1330.75,25.79,-13.4,-29.61,-436,-10,-125,0.61,-0.25,-0.43,0.62,97.97,-12.66,-59.19,29.06,171.14,-2000,880.43,36.65,-114.48,-80.28,-436,-10,-125,0.59,-0.24,-0.45,0.62,100.77,-13.16,-60.33,28.17,walking
288,6211805,305.05,-2000,1213.93,30.13,-73.85,-60.04,-436,-10,-125,0.59,-0.23,-0.45,0.64,102.33,-13.59,-59.03,29.08,-166.08,-2000,825.32,12.68,-16.35,-54.01,-466,-24,67,0.56,-0.26,-0.43,0.66,103.51,-7.9,-59.98,28.17,walking
289,6211863,467.77,-1977.17,1144.1,19.91,-5.73,-62.95,-466,-24,67,0.57,-0.25,-0.43,0.65,103.26,-9.33,-58.87,29.04,-126.95,-1978.15,860.17,11.16,-0.05,-36.06,-466,-24,67,0.55,-0.28,-0.42,0.66,103.68,-5.33,-60.08,28.16,walking
290,6211919,251.65,-1903.2,1080.63,27.18,-16.11,-69.6,-466,-24,67,0.56,-0.26,-0.42,0.66,103.36,-6.96,-59.13,29.07,-329.71,-1884.09,768.68,7.29,-20.81,-36.35,-466,-24,67,0.54,-0.3,-0.41,0.67,103.96,-2.91,-60.95,28.15,walking
291,6211974,288.39,-1984.37,1040.71,32.35,-28.43,-59.81,-470,-34,30,0.55,-0.27,-0.42,0.66,103.93,-6.11,-60.34,29.04,-342.1,-1988.77,769.96,15.43,-16.37,-41.48,-470,-34,30,0.54,-0.3,-0.42,0.67,104.33,-2.59,-61.91,28.19,walking
292,6212031,104.68,-1926.21,1010.5,43.42,-25.45,-66.09,-470,-34,30,0.55,-0.28,-0.42,0.67,104.13,-4.5,-60.75,29.07,-282.35,-1878.85,798.4,18.47,-2.41,-54.75,-470,-34,30,0.54,-0.31,-0.41,0.67,103.81,-2.02,-61.76,28.16,walking
293,6212088,383.48,-1956.85,1112.98,29.66,-51.31,-52.95,-356,-25,11,0.55,-0.27,-0.43,0.66,104.32,-6.5,-60.56,29.05,-196.9,-2000,807.37,18.88,-30.5,-68.5,-356,-25,11,0.54,-0.29,-0.43,0.66,104.7,-4.77,-61.77,28.16,walking
294,6212144,146.55,-1964.78,1097.9,23.69,-53.15,-52.44,-356,-25,11,0.54,-0.27,-0.43,0.67,105.55,-6.12,-60.73,29.07,-430.79,-2000,646.24,14.11,-25.97,-88.03,-356,-25,11,0.53,-0.3,-0.43,0.67,105.54,-3.4,-63.15,28.14,walking
295,6212200,116.82,-2000,946.29,2.11,-38.41,-44.6,-449,-10,-6,0.54,-0.29,-0.45,0.66,105.6,-5.83,-63.77,29.05,-471.68,-2000,654.05,15.8,-35.62,-122.92,-449,-10,-6,0.53,-0.3,-0.45,0.65,105.15,-4.61,-65.34,28.18,walking
296,6212256,-152.95,-2000,817.81,-4.01,-65.87,-4.3,-449,-10,-6,0.51,-0.31,-0.45,0.66,106.72,-3.31,-66.32,29.04,-515.2,-2000,237.98,20.11,-74.62,-177.35,-449,-10,-6,0.51,-0.32,-0.48,0.64,106.66,-4.49,-70.28,28.17,walking
297,6212313,352.97,-2000,510.56,-81.69,-122.47,31.73,-449,-10,-6,0.48,-0.31,-0.52,0.63,110.51,-6.32,-74.48,29.04,259.28,-2000,880.62,46.36,-111.48,-145.9,-463,3,-71,0.51,-0.25,-0.53,0.63,111.73,-12.35,-71.34,28.17,walking
298,6212368,686.95,-2000,1219.73,-71.69,-93.12,62.03,-463,3,-71,0.5,-0.24,-0.53,0.65,114.12,-12.72,-70.52,29.06,517.21,-2000,1047.55,42.3,6.91,-76.52,-463,3,-71,0.52,-0.21,-0.52,0.65,112.53,-14.98,-67,28.15,walking
299,6212425,1137.15,-2000,1041.5,-57.91,21.55,102.65,-463,3,-71,0.52,-0.21,-0.52,0.64,112.81,-15.43,-67.65,29.07,357.36,-1513.55,838.38,20.86,-12.13,51.93,-470,-78,-30,0.5,-0.22,-0.49,0.68,114.75,-11,-63.98,28.16,walking
300,6212482,905.4,-1923.52,991.94,-7.13,-5.09,127.78,-470,-78,-30,0.48,-0.21,-0.49,0.7,117.08,-10.07,-63.57,29.05,473.82,-1485.47,860.17,-26.77,-6.55,161.4,-470,-78,-30,0.46,-0.22,-0.48,0.72,119.56,-6.94,-63.31,28.16,walking
301,6212538,742.8,-1758.18,914.79,0.76,16.38,144.57,-470,-78,-30,0.45,-0.21,-0.48,0.72,120.87,-7.03,-63.33,29.06,423.22,-1492.74,785.95,-55.11,-8.37,231.99,-400,-118,-55,0.41,-0.23,-0.48,0.74,124.28,-2.87,-64.58,28.17,walking
302,6212593,811.04,-1581.54,877.26,11.14,53.1,117.65,-400,-118,-55,0.42,-0.21,-0.48,0.74,123.99,-5.45,-63.56,29.05,560.55,-1480.59,737.79,-57.26,-21.74,249.99,-400,-118,-55,0.39,-0.22,-0.49,0.75,127.39,-3.28,-65.38,28.16,walking
303,6212651,718.87,-1477.29,842.59,12.63,28.7,62.43,-400,-118,-55,0.41,-0.19,-0.5,0.74,126.75,-7.42,-64.1,29.06,98.08,-1865.36,761.29,-60.46,-74.26,249.99,-400,-118,-55,0.35,-0.22,-0.51,0.76,131.39,-0.99,-67.36,28.17,walking
304,6212707,29.85,-2000,929.75,24.79,-12.03,56.15,-459,-120,-111,0.36,-0.22,-0.51,0.75,130.36,-1.6,-67.27,29.06,-301.7,-1829.83,742.55,-43.37,-72.98,191.9,-459,-120,-111,0.32,-0.25,-0.51,0.76,132.31,3.07,-69.61,28.17,walking
305,6212763,-737.73,-2000,467.16,2.11,-53.58,6.11,-459,-120,-111,0.31,-0.28,-0.53,0.74,131.54,4.92,-73.05,29.07,-370.3,-1656.13,682.98,11.55,-3.49,-51.9,-459,-120,-111,0.33,-0.27,-0.53,0.74,129.7,3.17,-72.64,28.13,walking
306,6212819,49.56,-1699.28,1002.87,5,-12.68,-29.54,-434,-111,-123,0.37,-0.24,-0.52,0.73,127.87,-1.89,-69.72,29.06,-493.41,-2000,613.04,45.23,39.34,-148.9,-434,-111,-123,0.39,-0.25,-0.52,0.72,124.5,-2.6,-70.06,28.18,walking
307,6212877,-72.88,-2000,591,43.14,9.9,18.54,-434,-111,-123,0.4,-0.26,-0.51,0.71,123.48,-1.68,-70.43,29.08,-127.99,-2000,353.39,31.6,21.88,-117.79,-434,-111,-123,0.42,-0.27,-0.53,0.69,120.99,-4.11,-72.68,28.15,walking
308,6212932,1101.75,-1936.4,829.28,26.8,-14.16,-83.04,-463,-89,-91,0.47,-0.2,-0.55,0.66,120,-14.34,-70.63,29.05,459.41,-1577.03,1272.64,31.39,-38.84,-99.09,-463,-89,-91,0.49,-0.16,-0.51,0.69,119.5,-16.11,-64.2,28.16,walking
309,6212990,430.36,-1847.72,1605.9,14.7,-75.01,-50.12,-463,-89,-91,0.49,-0.14,-0.49,0.71,120.2,-16.22,-59.42,29.07,-156.07,-2000,906.07,16.78,-58.94,-73.97,-463,-89,-91,0.47,-0.16,-0.49,0.72,121.06,-13.39,-60.78,28.16,walking
310,6213046,358.89,-2000,988.22,42.04,-20.62,-65.38,-463,-89,-91,0.48,-0.15,-0.49,0.71,120.58,-14.38,-60.44,29.07,-11.29,-1990.6,797.61,16.25,35.56,-50.74,-307,-116,-118,0.47,-0.19,-0.48,0.72,119.97,-10.84,-61.68,28.18,walking
311,6213103,381.04,-1955.51,1044.19,18,21.24,-62.55,-307,-116,-118,0.48,-0.18,-0.48,0.71,118.98,-11.56,-60.85,29.07,-210.21,-1951.84,833.5,13.24,-5.19,-44.54,-307,-116,-118,0.46,-0.21,-0.47,0.72,119.35,-7.65,-61.94,28.18,walking
312,6213159,293.82,-1892.4,1046.08,27.9,-28.42,-64.29,-307,-116,-118,0.47,-0.19,-0.47,0.72,119.32,-9.65,-60.78,29.07,-265.62,-1954.65,779.24,13.22,-26.78,-47.76,-329,-90,41,0.44,-0.22,-0.46,0.74,120.96,-4.63,-60.94,28.16,walking
313,6213215,263.92,-2000,1048.4,29.91,-23.89,-58.9,-329,-90,41,0.45,-0.2,-0.45,0.74,121.52,-5.8,-59.58,29.08,-294.62,-1950.5,776.25,14.51,-5.25,-52.95,-329,-90,41,0.43,-0.23,-0.45,0.75,121.85,-2.38,-60.64,28.17,walking
314,6213271,301.64,-1904.6,1076.17,25.22,-9.74,-61.24,-329,-90,41,0.44,-0.21,-0.45,0.75,121.69,-4.92,-59.29,29.06,-33.51,-1932.5,742,14.82,-3.78,-62.36,-368,-106,36,0.44,-0.22,-0.46,0.74,121.79,-3.92,-60.83,28.16,walking
315,6213327,427.55,-1971.56,1076.48,19.52,-56.77,-56.05,-368,-106,36,0.44,-0.19,-0.46,0.75,123.04,-7.03,-59.82,29.05,-245.12,-2000,763,13.19,-26.43,-73.16,-368,-106,36,0.43,-0.21,-0.46,0.75,123.7,-4.51,-61.04,28.13,walking
316,6213393,70.37,-2000,1006.35,15.94,-23.22,-64.38,-368,-106,36,0.42,-0.2,-0.46,0.75,124.15,-4.9,-60.36,29.03,-474.43,-1969.24,603.52,10.58,3.72,-100.96,-368,-106,36,0.41,-0.24,-0.46,0.75,123.46,-1.72,-62.75,28.14,walking
317,6213449,16.36,-2000,770.14,-5.12,-34.46,-40.1,-415,-37,3,0.42,-0.23,-0.49,0.72,122.77,-5.04,-65.78,29.06,-517.33,-2000,419.37,21.86,-51.21,-152.68,-415,-37,3,0.42,-0.24,-0.51,0.71,122.21,-5.21,-68.71,28.15,walking
318,6213505,-240.84,-2000,413.88,-65.8,-185.84,6.52,-415,-37,3,0.38,-0.24,-0.55,0.71,127.14,-4.05,-73.77,29.07,-366.21,-2000,317.75,29.31,-114.79,-184.49,-415,-37,3,0.37,-0.22,-0.57,0.7,128.86,-6.47,-75.44,28.14,walking
319,6213562,400.51,-2000,1302.73,-66.96,-103.51,42.76,-441,1,-123,0.39,-0.19,-0.57,0.7,129.61,-10.38,-74.01,29.06,14.16,-2000,1172.85,30.02,40.25,-87.95,-441,1,-123,0.43,-0.19,-0.55,0.69,125.66,-12.18,-70.33,28.15,walking
320,6213617,959.29,-2000,1188.6,-74.22,34.47,88.94,-441,1,-123,0.45,-0.18,-0.55,0.68,123.19,-14.8,-70.6,29.05,792.54,-1703.98,1035.28,-11.8,29.91,4.71,-441,1,-123,0.48,-0.16,-0.55,0.66,120.43,-17.91,-68.36,28.19,walking
321,6213674,919.49,-2000,974,-37.38,24.73,115.39,-466,-96,-125,0.47,-0.18,-0.54,0.68,121.42,-15.05,-67.91,29.06,513.12,-1444.52,904.11,-27.2,28.61,133.61,-466,-96,-125,0.46,-0.19,-0.52,0.7,121.69,-11.77,-66.08,28.15,walking
322,6213731,914,-1867.61,968.14,-3.84,32.28,139.78,-466,-96,-125,0.45,-0.19,-0.51,0.71,122.02,-11.34,-65.58,29.07,473.63,-1496.15,823.61,-58.3,-14.92,203.58,-466,-96,-125,0.43,-0.21,-0.51,0.72,124.02,-8.03,-66.7,28.13,walking
323,6213788,857.79,-1635.93,1024.23,2.27,40.81,129.88,-466,-96,-125,0.44,-0.19,-0.5,0.72,123.11,-9.71,-64.8,29.06,478.03,-1460.51,849.12,-69.06,-24.51,249.99,-439,-65,-17,0.4,-0.21,-0.5,0.74,126.39,-5.41,-65.93,28.15,walking
324,6213843,778.99,-1451.35,922.97,4.18,72.79,77.6,-439,-65,-17,0.43,-0.19,-0.5,0.73,124.52,-8.88,-64.01,29.09,295.78,-1789.55,812.01,-75.82,2.94,249.99,-439,-65,-17,0.39,-0.22,-0.5,0.74,126.86,-3.62,-66.86,28.15,walking
325,6213899,307.37,-1875.06,806.15,-9.02,30.98,82.65,-439,-65,-17,0.39,-0.23,-0.51,0.73,126.3,-3.63,-67.79,29.06,-445.13,-1630.92,666.32,5.71,-95.12,89.26,-348,-328,0,0.17,-0.27,-0.4,0.86,147,19.3,-56.32,28.15,walking
326,6213999,-343.08,-1861.51,822.14,44.14,-91.04,19.68,-348,-328,0,0.18,-0.25,-0.43,0.85,147.43,15.13,-58.09,29.06,-108.7,-1647.83,748.05,44.59,-37.02,-112.02,-348,-328,0,0.22,-0.21,-0.45,0.84,145.52,8.66,-59.74,28.16,walking
327,6214055,666.81,-1994.32,1290.47,9.33,-30.83,-56.83,-348,-328,0,0.26,-0.14,-0.47,0.83,145.85,-0.04,-58.7,29.03,-378.78,-2000,297.42,21.57,137.79,-67.4,-307,-338,-125,0.28,-0.24,-0.51,0.78,136.71,4.66,-68.61,28.15,walking
328,6214128,630.74,-2000,981.75,4.36,167.29,-61.58,-307,-338,-125,0.33,-0.22,-0.51,0.77,133.36,-0.08,-66.81,29.07,202.82,-1667.05,846.13,25.56,97.41,-88.33,-307,-338,-125,0.35,-0.2,-0.49,0.77,132.41,-2.01,-64.04,28.16,walking
329,6214186,722.17,-1672.24,1330.69,23.42,6.68,-40.43,-415,-335,-17,0.37,-0.14,-0.46,0.8,134.46,-6.88,-57.23,29.05,83.98,-2000,784.61,33.7,-92.03,-82.37,-415,-335,-17,0.35,-0.12,-0.47,0.8,137.71,-7.74,-58.12,28.16,walking
330,6214243,223.51,-2000,1127.81,38.2,-58.83,-65.77,-415,-335,-17,0.33,-0.1,-0.47,0.81,140.31,-8.81,-56.58,29.05,-126.95,-1983.7,805.79,17,31.64,-51.26,-415,-335,-17,0.32,-0.12,-0.47,0.81,140.59,-5.73,-58.25,28.16,walking
331,6214300,515.56,-1982.12,1100.59,25,19.61,-66.09,-415,-335,-17,0.33,-0.1,-0.47,0.81,140.46,-8.58,-57.35,29.06,-153.93,-1985.84,806.95,11.6,0.73,-41.32,-432,-304,-17,0.31,-0.13,-0.48,0.81,141.02,-5.68,-59.4,28.15,walking
332,6214357,235.41,-1940.12,1052.8,29.81,-18.55,-71.04,-432,-304,-17,0.32,-0.11,-0.48,0.81,141.21,-7.38,-58.64,29.07,-305.24,-1907.1,704.71,11.12,-7.64,-42.88,-432,-304,-17,0.3,-0.14,-0.49,0.81,141.83,-3.84,-60.87,28.16,walking
333,6214413,325.07,-1994.81,986.08,27.88,-20.48,-59.62,-432,-304,-17,0.31,-0.12,-0.49,0.81,142.16,-6.65,-60.42,29.06,-245.36,-1984.31,761.35,15.46,-15.79,-50.1,-466,-277,-121,0.31,-0.14,-0.51,0.79,140.49,-5.21,-63.25,28.17,walking
334,6214468,206.6,-1952.51,1003.17,37.13,-8.29,-69.37,-466,-277,-121,0.33,-0.13,-0.51,0.78,138.71,-7.7,-62.61,29.06,-190.73,-1893.8,750.61,15.24,-1.94,-58.46,-466,-277,-121,0.33,-0.15,-0.51,0.78,137.62,-5.96,-64.01,28.18,walking
335,6214526,411.13,-1979.86,1073.55,28.74,-30.22,-62.26,-466,-277,-121,0.35,-0.12,-0.51,0.78,137.07,-9.56,-62.71,29.06,-271.12,-2000,778.08,16.53,-11.64,-69.19,-470,-202,-71,0.35,-0.15,-0.51,0.77,136.19,-7.05,-64.31,28.17,walking
336,6214583,113.4,-1967.41,1082.28,23.04,-30.29,-62.23,-470,-202,-71,0.36,-0.14,-0.51,0.77,135.7,-8.11,-63.12,29.05,-421.63,-2000,750.67,7.42,-5.32,-92.7,-470,-202,-71,0.35,-0.17,-0.51,0.77,134.52,-5.57,-64.78,28.15,walking
337,6214639,192.02,-2000,1006.9,0.28,-22.4,-50.13,-470,-202,-71,0.36,-0.16,-0.51,0.76,134.17,-7.15,-64.56,29.04,-355.59,-2000,637.15,11.09,-33.51,-130.13,-764,-120,-125,0.38,-0.17,-0.53,0.74,131.71,-8.54,-67.97,28.16,walking
338,6214695,-201.66,-2000,725.52,-13.84,-85.82,-11.05,-764,-120,-125,0.36,-0.18,-0.55,0.73,132.79,-7.33,-70.2,29.03,-785.4,-2000,234.25,13.85,-70.96,-172.7,-764,-120,-125,0.35,-0.2,-0.57,0.71,132.43,-6.43,-74.22,28.15,walking
339,6214752,49.68,-2000,622.5,-84.04,-110.12,32.55,-764,-120,-125,0.33,-0.2,-0.59,0.71,135.1,-5.99,-77.42,29.06,238.77,-2000,1067.87,33.62,-59.94,-143.31,-764,-120,-125,0.36,-0.15,-0.58,0.71,134.74,-11.45,-73.08,28.16,walking
340,6214809,599.43,-2000,1283.63,-72.05,-17.21,66.27,-466,-55,-125,0.38,-0.15,-0.57,0.71,132.97,-12.96,-71.94,29.06,743.65,-2000,1023.93,4.08,68.36,-53.83,-466,-55,-125,0.42,-0.14,-0.56,0.7,129.78,-15.89,-70.39,28.15,walking
341,6214870,1086,-2000,1124.69,-53.87,68.82,99.4,-466,-55,-125,0.43,-0.15,-0.56,0.69,127.2,-16.33,-69.8,29.05,374.15,-1596.37,979.49,-20.96,34.36,71.69,-466,-55,-125,0.44,-0.17,-0.54,0.7,125.49,-13.51,-67.68,28.18,walking
342,6214927,882.63,-1934.33,972.05,-11.52,45.91,135.91,-461,-70,-96,0.44,-0.18,-0.53,0.71,125.05,-12.36,-67.21,29.07,539.55,-1529.42,841,-59.99,16.94,156.6,-461,-70,-96,0.42,-0.19,-0.53,0.71,125.43,-10.17,-67.91,28.17,walking
343,6214985,855.59,-1807.68,883.06,-4.36,53.18,151.06,-461,-70,-96,0.43,-0.19,-0.52,0.71,124.74,-10.13,-67.57,29.07,495.06,-1420.53,732.67,-80.07,-0.6,237.58,-461,-70,-96,0.4,-0.21,-0.53,0.72,126.32,-6.87,-69.41,28.15,walking
344,6215040,859.44,-1496.95,887.08,2.84,65.7,111.47,-470,-256,-10,0.4,-0.19,-0.5,0.75,128.04,-6.49,-63.96,29.07,527.28,-1468.44,789.67,-76.53,-9.38,249.99,-470,-256,-10,0.35,-0.2,-0.49,0.77,133.07,-1.87,-64.04,28.14,walking
345,6215097,744.93,-1468.57,863.77,-1.59,70.25,43.76,-470,-256,-10,0.37,-0.17,-0.49,0.77,132.72,-5.04,-62.06,29.07,-8.67,-1964.54,629.52,-66.82,-1.61,249.99,-470,-338,9,0.17,-0.28,-0.5,0.8,145.21,16.28,-68.83,28.14,walking
346,6215192,-771,-1931.15,502.26,28,20.81,18.96,-470,-338,9,0.16,-0.3,-0.5,0.8,144.03,18.11,-70.3,29.05,-632.57,-1704.35,814.51,25.26,-81.28,-36.27,-470,-338,9,0.17,-0.27,-0.49,0.81,146.1,16.34,-67.76,28.16,walking
347,6215247,-100.59,-1835.63,1027.83,36.74,-98.01,-9.7,-470,-338,9,0.18,-0.22,-0.49,0.82,148.63,10.59,-64.67,29.05,-376.89,-2000,542.48,42.09,-7.1,-123.09,-434,-323,-119,0.23,-0.21,-0.52,0.79,144.13,5.79,-68.33,28.16,walking
348,6215303,-187.5,-2000,793.4,9.12,-15.22,24.33,-434,-323,-119,0.23,-0.21,-0.52,0.79,143.64,5.37,-68.82,29.07,-367.19,-2000,436.95,33.14,71.12,-83.73,-434,-323,-119,0.26,-0.23,-0.53,0.77,139.81,4.68,-71.16,28.15,walking
349,6215360,804.63,-2000,840.39,20.58,95.07,-41.02,-434,-323,-119,0.32,-0.19,-0.54,0.76,136.45,-3.16,-69.73,29.04,437.5,-1576.97,837.59,36.07,75.45,-91.84,-434,-323,-119,0.36,-0.16,-0.52,0.76,134.45,-7.15,-65.93,28.16,walking
350,6215416,722.78,-1683.53,1561.89,17.27,-16.35,-52.29,-251,-309,25,0.34,-0.09,-0.47,0.81,139.64,-10.16,-56.73,29.05,-152.77,-2000,794.92,18.81,-15.01,-65.55,-251,-309,25,0.26,-0.1,-0.47,0.84,147.5,-4.2,-57.5,28.16,walking
351,6215498,487.55,-1951.05,986.88,26.82,8,-68.89,-251,-309,25,0.27,-0.07,-0.47,0.84,149.14,-7.57,-56.74,29.05,-61.28,-1980.77,734.62,16.56,0.91,-46.25,-307,-311,-125,0.28,-0.1,-0.5,0.81,146.25,-6.32,-61.28,28.15,walking
352,6215560,261.9,-1959.23,1093.63,26.92,-22.3,-70.06,-307,-311,-125,0.3,-0.09,-0.5,0.81,145.01,-8.55,-60.68,29.04,-379.03,-1930.24,786.5,8.74,-24.54,-43.15,-307,-311,-125,0.28,-0.12,-0.51,0.81,144.74,-5.03,-62.58,28.16,walking
353,6215623,307.25,-1965.03,944.82,34.7,-12.78,-67.21,-307,-311,-125,0.31,-0.1,-0.51,0.8,143.51,-8.5,-62.14,29.03,-239.14,-1979.31,686.65,14.21,-6.23,-46.84,-359,-282,-123,0.3,-0.13,-0.52,0.79,142.38,-5.81,-64.7,28.16,walking
354,6215678,166.44,-1986.02,999.82,38.54,-1.13,-74.24,-359,-282,-123,0.32,-0.12,-0.51,0.79,140.92,-7.47,-63.42,29.05,-301.27,-1910.95,801.88,14.46,6.06,-54.87,-359,-282,-123,0.31,-0.15,-0.51,0.79,139.91,-4.6,-64.13,28.13,walking
355,6215735,345.15,-1979.86,1093.08,35.5,-12.8,-72.54,-359,-282,-123,0.33,-0.13,-0.5,0.79,138.95,-8.01,-62.28,29.06,-289.31,-2000,755.62,14.44,11.87,-68.92,-393,-227,-55,0.33,-0.15,-0.51,0.78,138.07,-5.18,-63.66,28.16,walking
356,6215793,125.85,-2000,1039.61,21.71,-26.48,-66.24,-393,-227,-55,0.33,-0.14,-0.5,0.79,138,-6.56,-62.62,29.04,-429.44,-2000,674.13,6.2,-5.8,-96.95,-393,-227,-55,0.33,-0.17,-0.51,0.78,137.3,-4.11,-64.59,28.14,walking
357,6215849,168.95,-2000,961.98,-1.65,-16.67,-55.03,-393,-227,-55,0.33,-0.16,-0.51,0.78,137.29,-5.68,-64.36,29.03,-349.06,-2000,639.34,5.41,-21.74,-129.35,-439,-174,-98,0.35,-0.17,-0.53,0.76,135.05,-6.13,-67.29,28.16,walking
358,6215906,-125.49,-2000,761.11,-9.5,-57.07,-16.99,-439,-174,-98,0.34,-0.18,-0.54,0.75,135.71,-5.11,-68.76,29.04,-634.89,-2000,310.85,2.02,-60.78,-180.87,-439,-174,-98,0.33,-0.19,-0.56,0.73,135.08,-4.97,-72.41,28.17,walking
359,6215961,-6.41,-2000,682.43,-85.25,-100.72,20.95,-439,-174,-98,0.31,-0.19,-0.58,0.73,137.79,-3.99,-74.97,29.05,53.89,-2000,1094.48,18.12,-46.08,-145.33,-439,-174,-98,0.33,-0.16,-0.56,0.74,137.28,-7.98,-71.03,28.15,walking
360,6216018,644.84,-2000,1280.82,-64.94,-6.29,55.18,-402,-106,-111,0.35,-0.15,-0.56,0.73,135.84,-10.28,-70.47,29.03,570.62,-2000,1073.43,7.25,74.88,-79.42,-402,-106,-111,0.4,-0.14,-0.55,0.72,131.51,-13.75,-68.35,28.16,walking
361,6216075,1184.33,-2000,1078.43,-70.97,63.9,91.03,-402,-106,-111,0.42,-0.14,-0.55,0.71,129.65,-15.17,-68.93,29.04,387.33,-1565.8,929.32,-11.89,17.23,41.66,-402,-106,-111,0.42,-0.15,-0.53,0.72,128.72,-13.33,-66.8,28.13,walking
362,6216132,945.07,-1872.92,987.24,-11.33,40.26,137.37,-354,-61,-125,0.44,-0.16,-0.54,0.71,126.09,-14.19,-67.09,29.06,520.63,-1419.68,883,-51.51,14.15,164.4,-354,-61,-125,0.43,-0.17,-0.53,0.71,125.81,-12.38,-67.11,28.13,walking
363,6216202,892.46,-1672.73,997.74,0.59,43.24,136.18,-354,-61,-125,0.45,-0.17,-0.52,0.71,124.28,-13.08,-65.78,29.07,474.55,-1385.5,834.9,-71.67,-10.85,249.99,-354,-61,-125,0.42,-0.19,-0.52,0.72,125.64,-9.17,-67.15,28.15,walking
364,6216257,916.32,-1473.08,920.23,9.86,68.06,97.54,-415,-229,-91,0.42,-0.17,-0.5,0.74,126.68,-9.8,-62.86,29.05,495.18,-1554.08,802.37,-70.35,9.8,249.99,-415,-229,-91,0.37,-0.19,-0.5,0.76,131.24,-3.95,-64.36,28.15,walking
365,6216318,677.98,-1697.2,856.69,-1.49,60.28,42.42,-415,-229,-91,0.38,-0.18,-0.5,0.76,130.59,-6.32,-63.74,29.04,-233.34,-2000,574.83,-71.04,-38.12,249.99,-415,-229,-91,0.31,-0.23,-0.51,0.77,134.99,2.83,-68.32,28.16,walking
366,6216373,-669.37,-1956.85,536.56,44.34,116.45,56.34,-436,-311,-108,0.28,-0.3,-0.48,0.77,132.72,10.69,-68.87,29.07,-845.09,-1469.18,630.68,-4.32,-89.16,108.99,-436,-311,-108,0.23,-0.32,-0.47,0.79,136.09,17.02,-67.82,28.15,walking
367,6216431,-308.29,-1959.9,724.55,39.36,-133.38,34.76,-436,-311,-108,0.24,-0.28,-0.48,0.8,138.78,12.82,-67.09,29.05,172.91,-1605.04,600.59,47.71,-73.59,-156.81,-436,-311,-108,0.29,-0.22,-0.51,0.78,137.57,2.5,-67.57,28.15,walking
368,6216487,571.66,-1846.8,1187.26,-8.35,-106.07,3.71,-464,-320,-109,0.3,-0.15,-0.51,0.79,140.59,-3.87,-64.91,29.07,-1048.65,-1889.34,545.35,1.98,137.05,34.7,-464,-320,-109,0.27,-0.25,-0.5,0.78,137.34,6.56,-67.49,28.16,walking
369,6216544,-4.88,-2000,1272.89,30.03,121.17,-44.44,-464,-320,-109,0.32,-0.24,-0.47,0.79,133.46,4.62,-64.31,29.06,168.7,-2000,493.23,34.06,153.32,-94.95,-464,-320,-109,0.36,-0.25,-0.49,0.75,128.33,1.63,-66.81,28.14,walking
370,6216600,1245.12,-1587.71,1225.46,13.42,8.71,-43.55,-464,-320,-109,0.4,-0.17,-0.49,0.75,128.8,-8.26,-62.16,29.04,502.93,-1894.59,1149.66,45.63,-116.68,-87.52,-302,-217,-123,0.41,-0.12,-0.49,0.76,131.58,-12.77,-59.87,28.17,walking
371,6216657,323.73,-2000,1312.62,33.29,-89.43,-73.53,-302,-217,-123,0.4,-0.09,-0.48,0.77,133.31,-14.2,-58.05,29.04,-271.48,-2000,781.01,5.85,-18.72,-58.83,-302,-217,-123,0.38,-0.13,-0.49,0.77,133.77,-10.18,-60.67,28.15,walking
372,6216715,494.38,-1957.64,996.52,22.48,-1.08,-72.22,-302,-217,-123,0.39,-0.11,-0.5,0.76,133.04,-12.69,-60.46,29.04,-121.22,-1938.48,719.18,13.31,-8.14,-40.82,-349,-227,-99,0.37,-0.14,-0.5,0.77,134.05,-8.99,-62.33,28.15,walking
373,6216771,176.15,-1938.48,1072.14,31.67,-16.34,-69.52,-349,-227,-99,0.38,-0.13,-0.49,0.77,134.02,-9.44,-60.73,29.01,-431.52,-1893.68,766.24,9.46,-18.67,-41.96,-349,-227,-99,0.35,-0.17,-0.49,0.78,134.56,-4.88,-62.27,28.15,walking
374,6216827,281.86,-1959.41,945.19,36.06,-14.16,-66.65,-349,-227,-99,0.37,-0.15,-0.49,0.78,134.14,-7.5,-61.71,29.05,-270.32,-2000,710.51,15.36,-6.07,-48.76,-468,-214,-96,0.36,-0.18,-0.5,0.77,133.34,-5.08,-64.06,28.17,walking
375,6216884,212.89,-1941.96,1050.9,37.19,-22.8,-73.97,-468,-214,-96,0.38,-0.16,-0.5,0.77,132.51,-7.66,-62.57,29.02,-323.91,-1921.94,804.2,14.34,0.5,-62.4,-468,-214,-96,0.37,-0.18,-0.49,0.77,131.64,-4.82,-63.53,28.14,walking
376,6216941,299.01,-2000,1032.35,30.68,-29.39,-62.75,-468,-214,-96,0.39,-0.16,-0.5,0.76,131.29,-7.79,-62.59,29.05,-374.76,-1991.27,712.83,12.86,-18.7,-81.54,-468,-214,-96,0.37,-0.19,-0.5,0.76,130.97,-5.27,-64.26,28.15,walking
377,6216996,105.59,-2000,1010.93,17.41,-43.96,-54.25,-424,-183,-123,0.39,-0.17,-0.5,0.75,130.57,-7.19,-63.91,29.05,-369.08,-2000,632.14,5.47,-8.09,-105.04,-424,-183,-123,0.38,-0.2,-0.51,0.74,129.29,-5.74,-66.13,28.15,walking
378,6217054,137.08,-2000,921.02,-11.21,-19.99,-44.23,-424,-183,-123,0.39,-0.19,-0.51,0.74,128.99,-6.74,-66.38,29.05,-433.9,-2000,669.49,5.72,-32.58,-145.05,-424,-183,-123,0.39,-0.2,-0.52,0.73,128.26,-5.89,-67.57,28.13,walking
379,6217110,-335.82,-2000,601.62,-27.61,-71.21,-1.08,-470,-113,-354,0.39,-0.24,-0.54,0.71,125.33,-4.8,-71.75,29.05,-777.83,-2000,214.36,15.37,-71.53,-184.45,-470,-113,-354,0.41,-0.26,-0.55,0.68,122.55,-5.48,-75.19,28.14,walking
380,6217167,365.05,-2000,976.56,-76.47,-86.68,35,-470,-113,-354,0.42,-0.25,-0.56,0.67,122.25,-8.17,-75.34,29.04,441.35,-2000,884.89,42.35,-12.71,-130.94,-470,-113,-354,0.47,-0.21,-0.55,0.65,118.85,-14.22,-72.16,28.14,walking
381,6217224,596.25,-2000,1338.07,-85.66,-29.22,69.2,-466,23,-354,0.5,-0.22,-0.54,0.64,115,-15.42,-71.24,29.06,691.47,-1933.41,997.68,-13.68,40.76,-29.14,-466,23,-354,0.54,-0.22,-0.54,0.61,109.97,-18.35,-69.47,28.16,walking
382,6217281,926.51,-2000,1116.46,-52.26,70.42,103.1,-466,23,-354,0.56,-0.24,-0.52,0.6,106.01,-17.26,-68.61,29.07,408.39,-1522.58,998.6,-33.29,46.89,89.54,-466,23,-354,0.57,-0.26,-0.49,0.61,103.34,-14.35,-66.48,28.14,walking
383,6217338,956.6,-1858.34,1015.81,-9.38,56.5,138.38,-466,23,-354,0.58,-0.26,-0.48,0.6,101.33,-13.8,-65.49,29.07,518.92,-1430.05,954.1,-64.61,24.19,163.47,-468,-118,-65,0.54,-0.28,-0.45,0.65,105.07,-6.72,-63.28,28.13,walking
384,6217393,791.44,-1661.01,1023.25,2.33,74.17,135.74,-468,-118,-65,0.53,-0.28,-0.43,0.68,106.57,-4.59,-61.01,29.04,447.39,-1393.68,924.62,-85.36,26.71,249.99,-468,-118,-65,0.49,-0.29,-0.42,0.7,110.15,0.12,-61.67,28.16,walking
385,6217449,901.43,-1521.61,907.84,8.03,101.23,92.02,-468,-118,-65,0.51,-0.27,-0.43,0.69,109.1,-3.33,-60.66,29.04,558.04,-1523.86,764.53,-79.48,19.78,249.99,-429,-236,26,0.45,-0.29,-0.42,0.74,115.79,3.02,-60.66,28.15,walking
386,6217505,791.93,-1514.1,741.76,-6.52,65.54,33.26,-429,-236,26,0.46,-0.26,-0.43,0.74,116.83,-0.4,-59.91,29.05,-167.36,-2000,696.96,-76.09,-47.44,249.99,-429,-236,26,0.37,-0.3,-0.43,0.77,123.36,8.52,-62.63,28.14,walking
387,6217562,-69.46,-2000,653.14,13.77,42.24,71.48,-429,-236,26,0.36,-0.32,-0.43,0.77,123.83,10.2,-63.98,29.05,-367.07,-1396,728.45,-16.77,-89.94,160.61,-436,-332,36,0.29,-0.32,-0.4,0.8,130.5,16.03,-60.77,28.14,walking
388,6217619,-622.19,-2000,516.11,32.94,-135.69,39.09,-436,-332,36,0.26,-0.31,-0.42,0.81,134.27,16.26,-61.96,29.03,-111.39,-1637.27,725.16,43.35,-108.15,-114.42,-436,-332,36,0.29,-0.26,-0.44,0.81,135.56,9.13,-61.34,28.15,walking
389,6217675,428.22,-1700.62,1140.32,27.02,-84.16,-23.85,-436,-332,36,0.3,-0.19,-0.45,0.82,138.59,2.31,-57.96,29.05,-1260.86,-2000,810.12,10.64,45.27,14.95,-436,-332,36,0.26,-0.26,-0.43,0.83,138.72,11.46,-59.36,28.13,walking
390,6217731,-1175.9,-2000,519.96,15.03,113.76,-15.61,-470,-338,-17,0.25,-0.33,-0.43,0.8,133.62,17.89,-64.72,29.03,162.78,-2000,541.32,26.4,182.94,-105,-470,-338,-17,0.32,-0.33,-0.46,0.76,127.03,11.75,-68.36,28.16,walking
391,6217788,1199.4,-1720.34,886.66,36.71,49.88,-39.22,-470,-338,-17,0.38,-0.25,-0.48,0.75,126.66,0.69,-65.17,29.03,590.7,-1630.49,1049.68,51.45,-70.41,-85.3,-470,-338,-17,0.39,-0.18,-0.47,0.77,129.81,-5.18,-59.9,28.14,walking
392,6217845,566.65,-2000,1263.79,38.56,-131.63,-56.5,-224,-323,-123,0.36,-0.1,-0.47,0.8,136.99,-10.4,-57.51,29.05,-326.11,-2000,950.2,23.1,-72.68,-69.31,-224,-323,-123,0.33,-0.11,-0.48,0.81,140.32,-7.91,-58.5,28.15,walking
393,6217902,275.51,-2000,1085.51,21.45,-3.86,-60.82,-224,-323,-123,0.33,-0.1,-0.48,0.81,141.4,-8.99,-58.35,29.02,-35.03,-1959.35,745.67,18,23.75,-45.64,-224,-323,-123,0.31,-0.12,-0.49,0.81,142.03,-6.91,-60.42,28.14,walking
394,6217958,308.72,-1973.69,1109.62,25.76,-13.47,-62.69,-361,-321,36,0.3,-0.09,-0.48,0.82,144.24,-7.88,-57.61,29.02,-252.14,-1970.58,827.7,13.46,-14.02,-41.66,-361,-321,36,0.27,-0.11,-0.48,0.83,146.15,-4.54,-58.45,28.14,walking
395,6218014,260.31,-1947.02,1017.64,32.04,-13.77,-64.8,-361,-321,36,0.27,-0.09,-0.47,0.83,147.2,-6.36,-57.44,29.04,-286.32,-1957.7,736.63,15.84,-0.31,-41.85,-361,-321,36,0.25,-0.11,-0.48,0.83,148.28,-2.99,-59.25,28.14,walking
396,6218071,336.91,-1983.28,998.47,33.3,-5.28,-64.96,-361,-321,36,0.26,-0.09,-0.48,0.83,148.71,-5.78,-58.49,29.04,-301.94,-1925.54,762.7,16.78,-11.41,-48.43,-359,-337,38,0.24,-0.11,-0.49,0.83,150,-2.68,-59.71,28.15,walking
397,6218128,275.51,-1903.87,1052.43,40.25,-23.25,-66.89,-359,-337,38,0.24,-0.08,-0.48,0.84,150.79,-5.46,-58.07,29.05,-180.66,-1958.86,788.15,20.58,3.13,-58.97,-359,-337,38,0.23,-0.1,-0.49,0.84,151.12,-3.64,-59.43,28.14,walking
398,6218184,338.2,-2000,1117.92,29.25,-33.94,-58.93,-359,-337,38,0.24,-0.07,-0.48,0.84,152.17,-6.61,-58.22,29.04,-382.81,-1989.32,771.73,14.57,-10.55,-73.1,-410,-282,-8,0.24,-0.1,-0.5,0.83,150.51,-4.43,-61.48,28.15,walking
399,6218239,112.98,-2000,1077.82,15.9,-24.09,-56.68,-410,-282,-8,0.25,-0.09,-0.5,0.82,149.79,-6.03,-61.52,29.04,-380.43,-2000,620.06,12.89,-5.04,-99.85,-410,-282,-8,0.25,-0.11,-0.52,0.81,148.65,-4.43,-64.13,28.15,walking
400,6218296,169.98,-2000,846.25,-2.07,-26.37,-37.06,-410,-282,-8,0.25,-0.1,-0.53,0.8,149.01,-5.72,-65.02,29.04,-392.27,-2000,389.28,20.07,-50.32,-138.92,-470,-202,9,0.25,-0.12,-0.56,0.78,148.4,-5.83,-69.17,28.13,walking
401,6218353,-196.35,-2000,575.68,-27.82,-110.18,5.29,-470,-202,9,0.22,-0.12,-0.57,0.78,151.37,-3.73,-71.61,29.04,-606.93,-2000,136.05,28.36,-98.08,-181.4,-470,-202,9,0.21,-0.12,-0.6,0.77,152.46,-3.93,-74.85,28.14,walking
402,6218409,209.11,-2000,1079.47,-83.88,-129.16,37.49,-470,-202,9,0.19,-0.1,-0.59,0.78,156.13,-4.17,-73.54,29.01,162.17,-2000,1051.27,36.92,-41.97,-128.05,-470,-202,9,0.21,-0.06,-0.57,0.79,155.67,-8.22,-69.84,28.16,walking
403,6218466,587.28,-2000,1381.9,-70.07,3.01,78.99,-446,-113,-17,0.23,-0.06,-0.57,0.79,154.48,-9.19,-70.06,29.05,808.84,-1914.31,976.01,-3.99,91.47,-36.25,-446,-113,-17,0.27,-0.05,-0.57,0.77,150.5,-13.42,-69.63,28.16,walking
404,6218523,1015.93,-2000,1065.98,-56.1,67.38,107.04,-446,-113,-17,0.29,-0.06,-0.58,0.76,148.55,-13.73,-70.14,29.05,454.04,-1531.8,984.68,-27.85,27.89,83.37,-446,-113,-17,0.29,-0.08,-0.56,0.77,147.27,-11.91,-68.12,28.14,walking
405,6218578,950.2,-1864.32,939.76,-14.5,39.52,136.83,-466,-215,0,0.28,-0.08,-0.55,0.78,147.74,-11.19,-66.93,29.05,505.43,-1477.36,792.91,-58.73,1.43,167.77,-466,-215,0,0.26,-0.09,-0.55,0.79,149.23,-8.59,-67.4,28.14,walking
406,6218635,862.55,-1722.78,855.35,-9.39,31.85,143.97,-466,-215,0,0.26,-0.08,-0.55,0.79,149.65,-8.99,-67,29.05,468.69,-1389.89,770.14,-74.65,-36.73,243.85,-466,-215,0,0.22,-0.09,-0.55,0.8,152.58,-5.57,-68.21,28.1,walking
407,6218691,810.3,-1500.85,934.57,5.68,51.08,99.46,-192,-222,-3,0.22,-0.07,-0.53,0.82,154.04,-7.43,-63.93,29.03,493.96,-1484.19,772.89,-72.92,-10.25,249.99,-192,-222,-3,0.18,-0.08,-0.53,0.82,158.17,-3.81,-65.11,28.12,walking
408,6218747,759.16,-1464.6,796.94,-2.61,47.65,40.01,-192,-222,-3,0.2,-0.05,-0.53,0.82,157.74,-7.97,-63.95,29.05,26.25,-1911.13,700.38,-78.16,-84.66,249.99,-192,-222,-3,0.13,-0.08,-0.55,0.82,163.29,-0.97,-67.89,28.16,walking
409,6218804,-116.7,-2000,802.12,12.33,-19.78,72.69,-192,-222,-3,0.11,-0.09,-0.55,0.82,164.28,1.82,-67.86,29.04,-504.58,-1450.93,647.64,-32.82,-118.54,184.28,-361,-229,-3,0.04,-0.13,-0.56,0.82,167.6,9.03,-70.29,28.15,walking
410,6218860,-1010.5,-2000,263.12,22.99,-132.03,40.29,-361,-229,-3,0.01,-0.15,-0.59,0.79,169,12.56,-74.76,29.05,-256.96,-1599.24,753.66,33.41,-135.24,-102.71,-361,-229,-3,0.03,-0.1,-0.59,0.8,170.87,6.83,-72.86,28.13,walking
411,6218916,38.09,-1682.31,989.56,14.4,-66.65,-10.74,-361,-229,-3,0.05,-0.06,-0.58,0.81,171.21,2.75,-70.97,29.07,-953.8,-2000,409.42,35.21,-29.13,-94.06,-317,-263,-114,0.08,-0.11,-0.61,0.79,165.79,4.21,-75.75,28.15,walking
412,6218973,-1046.94,-2000,697.39,53.96,-45.69,25.91,-317,-263,-114,0.06,-0.15,-0.6,0.78,163.8,9.04,-75.98,29.05,-531.68,-2000,368.41,24.02,35.36,-107.81,-317,-263,-114,0.11,-0.16,-0.62,0.76,158.39,6.22,-79.45,28.13,walking
413,6219029,587.83,-1992.55,904.48,29.1,47.56,-85.76,-317,-263,-114,0.19,-0.12,-0.61,0.76,154.66,-3.2,-76.83,29.06,528.5,-1506.1,1134.4,38.97,81.45,-94.75,-442,-202,-17,0.25,-0.08,-0.56,0.78,150.99,-9.26,-69.15,28.15,walking
414,6219086,718.08,-1697.88,1470.7,35.5,-16.46,-51.54,-442,-202,-17,0.28,-0.04,-0.53,0.8,149.57,-13.48,-63.55,29.04,49.74,-2000,947.88,24.94,-78.09,-73.25,-442,-202,-17,0.28,-0.04,-0.53,0.8,150,-13.35,-64.12,28.17,walking
415,6219142,293.88,-2000,968.02,46.8,-46.83,-60.81,-442,-202,-17,0.28,-0.04,-0.53,0.8,149.75,-14.28,-63.63,29.04,-102.48,-1990.6,753.54,23.52,18.07,-46.23,-442,-202,-17,0.28,-0.07,-0.54,0.79,148.33,-10.88,-65.09,28.13,walking
416,6219199,498.47,-1990.66,1103.27,23.55,-13.58,-61.21,-444,-193,-119,0.32,-0.06,-0.54,0.78,144.84,-14.8,-64.96,29.06,-246.22,-1967.29,905.7,19.5,-19.44,-35.13,-444,-193,-119,0.32,-0.09,-0.54,0.78,143.21,-11.36,-65.73,28.14,walking
417,6219256,230.16,-1891.97,1081.91,34.16,-38.48,-62.71,-444,-193,-119,0.34,-0.09,-0.53,0.77,141.34,-13.07,-64.33,29.05,-340.88,-1914.12,790.77,17.66,-31.47,-37.19,-444,-193,-119,0.33,-0.12,-0.53,0.77,140.38,-9.27,-65.8,28.13,walking
418,6219313,249.94,-1999.63,1051.15,37.61,-34.23,-54.39,-470,-174,-47,0.34,-0.11,-0.52,0.77,139.89,-10.82,-64.17,29.03,-373.11,-1989.07,875.61,20.08,-20.17,-41.19,-470,-174,-47,0.33,-0.14,-0.52,0.78,139.49,-7.33,-64.68,28.13,walking
419,6219371,186.04,-1914.73,1108.4,41.02,-30.06,-57.57,-470,-174,-47,0.34,-0.12,-0.51,0.78,138.6,-9.2,-62.76,29.03,-168.7,-1906.01,799.44,19.63,-18.64,-53.67,-470,-174,-47,0.34,-0.14,-0.51,0.78,137.86,-7.52,-64.05,28.12,walking
420,6219426,456.85,-1998.11,1117.74,30.11,-65.39,-46.52,-466,-120,-111,0.37,-0.11,-0.53,0.76,136.29,-13.18,-64.13,29.04,-251.77,-2000,778.63,20.85,-37.43,-61.32,-466,-120,-111,0.37,-0.13,-0.53,0.75,135.25,-11.32,-65.87,28.14,walking
421,6219483,163.57,-1937.07,1070.86,22.67,-46.92,-44.91,-466,-120,-111,0.38,-0.12,-0.53,0.75,134.14,-12.41,-64.97,29.02,-362.98,-2000,760.62,22.32,-24.72,-75.78,-466,-120,-111,0.38,-0.15,-0.53,0.74,132.8,-9.82,-66.41,28.16,walking
422,6219540,148.5,-2000,1032.23,14.76,-58.22,-39.94,-466,-120,-111,0.39,-0.15,-0.53,0.74,132.46,-10.99,-65.99,29.04,-432.5,-2000,613.59,19.6,-44.29,-107.28,-299,-97,-96,0.38,-0.17,-0.54,0.73,131.42,-8.94,-68.19,28.15,walking
423,6219597,-33.08,-2000,857.3,5.17,-70.53,-12.3,-299,-97,-96,0.37,-0.18,-0.54,0.74,132.06,-8.1,-68.55,29.04,-568.85,-2000,267.88,28.15,-76.47,-159.49,-299,-97,-96,0.37,-0.19,-0.56,0.72,131.81,-7.6,-72.13,28.14,walking
424,6219653,98.63,-2000,284,-79.74,-165.29,35.51,-299,-97,-96,0.33,-0.19,-0.6,0.7,136.31,-7.33,-78.22,29.03,50.66,-2000,591.06,50.71,-155.13,-164.15,-361,-85,-357,0.38,-0.15,-0.61,0.68,133.47,-14.86,-77.81,28.14,walking
425,6219710,676.82,-2000,1180.66,-64.49,-127.86,66.01,-361,-85,-357,0.4,-0.15,-0.61,0.67,131.67,-16.7,-77.08,29.03,195.25,-2000,1190.73,58.15,27.99,-56.79,-361,-85,-357,0.45,-0.16,-0.57,0.67,125.18,-16.79,-71.37,28.14,walking
426,6219766,1042.24,-2000,1182.43,-55.92,-8.65,114.79,-361,-85,-357,0.47,-0.17,-0.56,0.66,121.58,-17.44,-70.84,29.04,714.54,-1407.84,938.23,29.56,-33.42,38.33,-463,-116,-448,0.5,-0.15,-0.54,0.66,118.34,-19.78,-66.31,28.15,walking
427,6219827,993.35,-1873.47,913.33,-14.78,-44.28,123.11,-463,-116,-448,0.5,-0.16,-0.54,0.66,118.3,-19.46,-67.32,29.04,437.5,-1387.39,565.55,12.31,-37.8,137.11,-463,-116,-448,0.49,-0.19,-0.54,0.66,118.53,-16.15,-68.36,28.15,walking
428,6219884,871.77,-1776.31,780.33,-4.23,-17.69,154.06,-463,-116,-448,0.49,-0.2,-0.54,0.66,117.92,-15.42,-68.94,29.04,553.83,-1329.96,655.27,-26.41,-45.35,204.32,-388,-113,-411,0.47,-0.21,-0.53,0.67,118.43,-12.7,-69.51,28.13,walking
429,6219941,773.74,-1557.19,937.62,8.99,-13.97,116.44,-388,-113,-411,0.49,-0.21,-0.52,0.67,116.6,-13.63,-67.15,29.03,449.71,-1495.79,757.87,-34.58,-66.02,249.99,-388,-113,-411,0.46,-0.23,-0.51,0.68,118.26,-9.2,-68.3,28.13,walking
430,6219997,704.1,-1513.67,963.87,11.17,3.09,62.04,-388,-113,-411,0.5,-0.21,-0.5,0.67,115,-12.17,-65.39,29.01,252.38,-1835.08,826.66,-65.86,-65.94,249.99,-388,-113,-411,0.46,-0.26,-0.5,0.69,117.06,-6.09,-68.42,28.15,walking
431,6220054,266.6,-1923.16,1088.13,2.04,-25.02,35.27,-253,-174,-415,0.47,-0.25,-0.48,0.69,116.15,-5.83,-66.17,29.04,-242.68,-2000,780.21,-51.93,-93.52,249.65,-253,-174,-415,0.41,-0.3,-0.48,0.72,119.44,2.26,-68.74,28.14,walking
432,6220111,-830.38,-1916.69,761.11,35.12,-71.5,29.88,-253,-174,-415,0.39,-0.33,-0.45,0.73,119.03,7.39,-67.83,29.05,-917.42,-1650.82,596.07,5.95,-149.15,-12.45,-253,-174,-415,0.37,-0.34,-0.44,0.74,119.95,10.44,-67.98,28.13,walking
433,6220166,-101.32,-1909.36,795.47,15.75,-132.58,18.46,-470,-167,-543,0.4,-0.32,-0.46,0.73,118.73,5.41,-67.32,29.03,91.49,-1621.58,713.62,33.31,-56.14,-193.78,-470,-167,-543,0.48,-0.28,-0.47,0.69,113.61,-4.13,-66.51,28.16,walking
434,6220224,1451.54,-2000,1220.95,-75.45,-116.04,-50.61,-470,-167,-543,0.51,-0.21,-0.52,0.65,113.69,-15.08,-67.45,29.06,-725.16,-1796.02,922.67,0.58,82.86,-14.02,-470,-167,-543,0.51,-0.28,-0.47,0.67,109.8,-5.84,-66.11,28.16,walking
435,6220281,547.79,-2000,672.24,18.06,205.23,-64.38,-253,-171,-533,0.56,-0.3,-0.46,0.63,102.04,-7.7,-66.26,29.03,99.37,-1771.97,702.94,18.63,112.55,-70.29,-253,-171,-533,0.57,-0.31,-0.45,0.62,99.81,-6.96,-65.86,28.14,walking
436,6220337,805.24,-1590.27,1292.6,21.33,6.14,-52.88,-253,-171,-533,0.59,-0.25,-0.45,0.62,100.21,-12.7,-61.18,29.02,-8.18,-1969.67,931.58,21.23,-30.77,-59.65,-253,-171,-533,0.58,-0.26,-0.45,0.63,101.74,-11.2,-61.59,28.15,walking
437,6220394,451.6,-2000,1178.53,26.41,-45.07,-53.63,-253,-171,-533,0.58,-0.23,-0.45,0.64,103.18,-13.35,-60.3,29.03,-315.73,-1997.56,813.05,13.93,-37.08,-49.18,-251,-173,-501,0.56,-0.26,-0.45,0.65,104.64,-9.33,-62.08,28.13,walking
438,6220451,271.06,-1992.13,1136.96,18.83,-24.64,-48.56,-251,-173,-501,0.56,-0.25,-0.45,0.65,105.18,-10.19,-61.05,29.03,-260.07,-1977.78,850.16,9.51,-15.91,-39.42,-251,-173,-501,0.54,-0.27,-0.44,0.66,105.68,-6.83,-62.34,28.13,walking
439,6220508,260.13,-1895.2,1113.16,23.43,-21.85,-54.08,-251,-173,-501,0.55,-0.25,-0.44,0.66,105.82,-8.56,-60.83,29.05,-373.54,-1930.18,813.6,6.42,-30.89,-36.44,-353,-125,-538,0.54,-0.29,-0.43,0.66,105.12,-4.75,-62.54,28.13,walking
440,6220564,143.92,-1998.41,1010.74,30.04,-29.85,-50.72,-353,-125,-538,0.55,-0.28,-0.43,0.66,104.25,-6.18,-61.89,29.02,-396.67,-1959.59,780.52,14.03,-9.82,-43.79,-353,-125,-538,0.54,-0.31,-0.42,0.66,103.39,-2.93,-63.24,28.13,walking
441,6220621,101.87,-1925.35,1048.77,30.85,-15.24,-48.28,-353,-125,-538,0.55,-0.3,-0.42,0.66,102.59,-4.35,-61.82,29.02,-307.8,-1911.25,834.35,14.72,-14.85,-55.18,-414,-104,-545,0.55,-0.32,-0.41,0.65,101.45,-2.4,-62.75,28.13,walking
442,6220679,422.61,-1922.12,1095.15,25.42,-48.83,-42.52,-414,-104,-545,0.57,-0.29,-0.43,0.65,101.48,-6.47,-61.48,29.02,-112.43,-1967.65,837.04,16.35,-43.02,-61.7,-414,-104,-545,0.56,-0.29,-0.43,0.64,101.45,-5.97,-62.63,28.13,walking
443,6220734,418.27,-1938.23,1162.17,26.45,-61.23,-35.4,-414,-104,-545,0.57,-0.27,-0.44,0.64,101.99,-9.1,-61,29.04,-302.67,-1966.74,837.22,16.33,-39.15,-64.91,-414,-104,-545,0.56,-0.29,-0.43,0.64,101.8,-6.64,-62.22,28.12,walking
444,6220792,109.13,-1943.73,1065.37,27.24,-59.01,-37.16,-463,-61,-556,0.57,-0.28,-0.43,0.64,101.3,-7.62,-61.27,29.03,-516.78,-1986.15,735.9,17.92,-36.61,-86.62,-463,-61,-556,0.57,-0.31,-0.42,0.64,100.11,-4.88,-62.98,28.13,walking
445,6220848,69.34,-2000,989.56,6.86,-60.45,-17.04,-463,-61,-556,0.56,-0.3,-0.43,0.64,100.41,-5.45,-63.13,29.03,-370.42,-2000,460.08,26.73,-53.33,-130.55,-463,-61,-556,0.56,-0.32,-0.44,0.62,99.42,-5.36,-66.1,28.13,walking
446,6220905,-77.45,-2000,566.96,-22.72,-103.65,11.63,-470,-113,-759,0.53,-0.34,-0.46,0.63,102.36,-4.03,-69.55,29.04,-500.06,-2000,112.92,49.19,-84.12,-178.09,-470,-113,-759,0.53,-0.35,-0.48,0.61,102.12,-4.75,-72.56,28.12,walking
447,6220962,337.95,-2000,566.04,-88.07,-146.4,51.08,-470,-113,-759,0.5,-0.34,-0.51,0.61,105.85,-6.03,-75.98,29.04,462.1,-2000,1052.98,72.81,-134.53,-138.33,-470,-113,-759,0.54,-0.28,-0.51,0.61,106.29,-12.58,-71,28.13,walking
448,6221019,778.2,-2000,1202.94,-64.53,-110.28,72.85,-405,-120,-752,0.54,-0.26,-0.52,0.61,107.73,-13.72,-70.34,29.02,630,-1967.59,1065.92,58.71,-13.05,-39.2,-405,-120,-752,0.56,-0.24,-0.5,0.61,105.09,-15.59,-66.43,28.15,walking
449,6221076,1154.48,-2000,999.94,-40.75,-4.02,109.79,-405,-120,-752,0.57,-0.24,-0.5,0.6,104.6,-16.18,-67.23,29.03,406.49,-1377.56,768.74,33.55,-28.79,83.86,-405,-120,-752,0.57,-0.25,-0.48,0.62,104.43,-13.99,-65.05,28.14,walking
450,6221133,963.26,-1796.63,793.27,0.72,-45.27,142.43,-405,-120,-752,0.56,-0.24,-0.49,0.62,105.91,-14.32,-66.08,29.02,520.69,-1362.85,548.89,5.62,-40.83,167.34,-464,-1,-818,0.55,-0.26,-0.49,0.62,105.16,-12.29,-67.33,28.13,walking
451,6221189,820.01,-1647.46,801.88,8,-29.34,138.27,-464,-1,-818,0.56,-0.27,-0.49,0.61,103.7,-12.73,-66.81,29.05,399.48,-1337.28,640.87,-25.57,-74.36,238.46,-464,-1,-818,0.54,-0.29,-0.48,0.63,104.88,-8.37,-67.95,28.13,walking
452,6221245,749.33,-1564.33,929.69,15.03,-16.77,95.31,-464,-1,-818,0.57,-0.28,-0.47,0.62,102.2,-10.49,-65.42,29.04,387.51,-1655.7,726.5,-38.88,-65.14,249.99,-454,-60,-764,0.53,-0.31,-0.46,0.64,104.82,-5.46,-67.59,28.14,walking
453,6221302,497.5,-1724.98,868.35,7.58,3.63,49.92,-454,-60,-764,0.55,-0.3,-0.46,0.63,102.41,-6.99,-66.27,29.04,113.77,-2000,709.41,-67.09,-78.02,249.99,-454,-60,-764,0.5,-0.34,-0.46,0.65,104.94,-0.98,-69.71,28.13,walking
454,6221358,-136.05,-1928.77,1001.46,9.74,-44.75,41.91,-454,-60,-764,0.51,-0.35,-0.43,0.65,103.6,0.53,-67.45,29.02,-366.15,-1749.69,718.32,-55.2,-176.64,168.51,-327,-120,-759,0.46,-0.37,-0.43,0.68,108.35,5.9,-68.84,28.11,walking
455,6221415,-999.57,-2000,336.36,6.77,-153.06,27.83,-327,-120,-759,0.43,-0.4,-0.43,0.69,109.4,10.46,-71.17,29.04,-499.88,-1638.79,745.3,4.56,-95.37,-78.45,-327,-120,-759,0.45,-0.38,-0.42,0.69,108.25,8.63,-69.26,28.14,walking
456,6221471,62.38,-1745.54,918.21,-12.57,-56.35,-17.11,-327,-120,-759,0.48,-0.36,-0.43,0.68,106.85,4.28,-67.39,29.02,-733.52,-2000,560.85,14.82,-46.04,-77.8,-327,-120,-759,0.48,-0.38,-0.42,0.67,104.75,5.85,-68.78,28.13,walking
457,6221528,-579.71,-2000,595.83,39.44,-42.49,26.86,-249,-61,-853,0.48,-0.4,-0.4,0.67,103.12,9.21,-68.81,29.04,-590.88,-2000,425.84,10.71,-35.75,-96.32,-249,-61,-853,0.49,-0.42,-0.41,0.65,100.51,8.46,-70.88,28.13,walking
458,6221584,512.51,-1976.62,986.08,-8.9,27.32,-54.23,-249,-61,-853,0.54,-0.38,-0.42,0.62,97.62,1.21,-69.19,29.03,202.27,-1657.59,975.89,24.85,28.2,-79.41,-249,-61,-853,0.58,-0.35,-0.41,0.61,95.08,-2.54,-65.76,28.12,walking
459,6221640,407.53,-1757.14,1264.1,24.25,-29.66,-38.09,-241,-49,-855,0.6,-0.31,-0.41,0.61,94.54,-6.42,-61.63,29.02,-104.13,-2000,934.51,20.65,-44.75,-63.74,-241,-49,-855,0.6,-0.32,-0.41,0.61,94.26,-5.95,-61.98,28.13,walking
460,6221696,376.16,-2000,1076.11,31.56,-35.39,-45.46,-241,-49,-855,0.61,-0.3,-0.41,0.6,93.93,-8.5,-61.01,29.04,-236.63,-1989.14,831.97,16.89,-16.9,-47.41,-241,-49,-855,0.61,-0.33,-0.4,0.6,93.26,-5.58,-62.33,28.11,walking
461,6221752,339.6,-2000,1185.97,14.49,-8.87,-44.71,-253,-31,-870,0.62,-0.31,-0.4,0.59,92.13,-7.56,-60.96,29.02,-116.7,-1957.15,879.33,13.19,-22.31,-38.51,-253,-31,-870,0.62,-0.33,-0.4,0.6,91.9,-5.92,-61.87,28.14,walking
462,6221809,283.14,-1929.02,1075.56,26.3,-48.14,-48.1,-253,-31,-870,0.62,-0.31,-0.41,0.59,92.16,-8.17,-60.89,29.03,-372.62,-1926.39,851.14,9.1,-52.45,-37.01,-253,-31,-870,0.61,-0.33,-0.4,0.6,92.62,-4.63,-62.24,28.14,walking
463,6221865,204.53,-1998.17,1073.91,26.82,-58.82,-37.84,-253,-31,-870,0.61,-0.32,-0.4,0.6,93.19,-6.39,-61.45,29.02,-300.84,-1960.21,851.87,14.76,-35.22,-42.04,-229,-7,-870,0.6,-0.34,-0.39,0.61,92.51,-3.54,-62.55,28.13,walking
464,6221922,174.87,-1918.15,1126.4,33.71,-23.64,-47.87,-229,-7,-870,0.62,-0.32,-0.39,0.6,91.7,-5.16,-60.75,29.04,-327.27,-1923.58,811.89,15.25,-9.85,-46.1,-229,-7,-870,0.61,-0.35,-0.38,0.6,90.83,-2.46,-62.05,28.12,walking
465,6221979,300.6,-1912.78,1030.52,34.29,-43.21,-48.58,-229,-7,-870,0.62,-0.33,-0.39,0.59,91.03,-5.74,-61.03,29.02,-267.76,-1994.81,844.67,21.88,-21.44,-57.53,-253,23,-870,0.62,-0.35,-0.38,0.59,89.91,-3.63,-62.13,28.12,walking
466,6222035,162.96,-1941.96,1160.89,27.74,-50.45,-43.35,-253,23,-870,0.63,-0.33,-0.38,0.59,89.98,-5.36,-60.61,29.03,-335.88,-2000,777.53,20.84,-19.12,-75.46,-253,23,-870,0.62,-0.35,-0.38,0.59,88.92,-3.4,-62.25,28.14,walking
467,6222091,144.41,-2000,976.14,16.24,-39.63,-42.84,-253,23,-870,0.63,-0.34,-0.39,0.58,89.12,-5.04,-62.32,29,-390.75,-2000,555.66,22.4,-33.16,-110.23,-195,44,-934,0.62,-0.37,-0.39,0.57,87.94,-3.68,-65.06,28.13,walking
468,6222148,69.09,-2000,772.34,1.42,-76.68,-7.21,-195,44,-934,0.61,-0.37,-0.41,0.57,89.5,-4.15,-66.19,29.02,-378.42,-2000,301.64,40.76,-76.38,-156.27,-195,44,-934,0.6,-0.38,-0.42,0.56,89.25,-4.82,-69.16,28.12,walking
469,6222204,-80.99,-2000,353.52,-65.36,-155.14,33.85,-195,44,-934,0.56,-0.4,-0.45,0.57,93.31,-3.26,-74.41,29.02,-78.37,-2000,372.5,58.72,-138.79,-174.67,-195,44,-934,0.57,-0.37,-0.48,0.55,94.14,-7.38,-74.38,28.13,walking
470,6222260,623.6,-2000,1231.02,-68.89,-139.14,53.08,-470,-116,-880,0.56,-0.33,-0.49,0.58,99.17,-9.04,-72.45,29.02,277.04,-2000,1157.47,66.34,-13.52,-77.25,-470,-116,-880,0.58,-0.3,-0.47,0.59,98.15,-10.66,-67.25,28.13,walking
471,6222317,811.28,-2000,1252.93,-65.69,-46.16,93.86,-470,-116,-880,0.58,-0.29,-0.47,0.6,99.84,-11.1,-67,29.02,851.5,-1496.22,995.48,20.42,-12.27,14.37,-470,-116,-880,0.6,-0.26,-0.47,0.59,99.05,-15.1,-63.66,28.14,walking
472,6222374,908.02,-1952.51,968.87,-28.25,-26.69,113,-402,98,-877,0.61,-0.27,-0.47,0.58,96.9,-14.67,-65.1,29.05,406.74,-1415.22,764.34,2.42,-1.48,123.97,-402,98,-877,0.61,-0.3,-0.45,0.58,94.93,-11.69,-64.54,28.13,walking
473,6222430,867.31,-1771.91,852.36,-6.7,-13.53,146.85,-402,98,-877,0.61,-0.3,-0.45,0.58,94.09,-11.52,-65.12,29.05,433.84,-1414.25,609.37,-23.12,-53.08,178.4,-402,98,-877,0.6,-0.32,-0.45,0.58,94.92,-8.94,-66.83,28.11,walking
474,6222486,717.53,-1622.19,838.2,-4.18,-10.83,130.85,-415,157,-981,0.61,-0.33,-0.44,0.57,92.76,-9.24,-66.07,29.05,327.27,-1428.89,729.55,-44.2,-72.17,249.99,-415,157,-981,0.58,-0.35,-0.43,0.59,94.15,-4.54,-67.14,28.13,walking
475,6222541,716.31,-1523.32,941.41,1.14,8.27,83.05,-415,157,-981,0.62,-0.34,-0.42,0.58,91.05,-7.19,-64.7,29.03,425.29,-1623.47,801.88,-59.04,-41.48,249.99,-415,157,-981,0.59,-0.36,-0.41,0.59,92.29,-3.19,-66.5,28.14,walking
476,6222598,414.73,-1698.36,1025.09,6.14,-16.17,26.87,-415,157,-981,0.62,-0.35,-0.4,0.58,89.78,-5.17,-64.1,29.04,-224.55,-2000,900.76,-73.34,-98.37,249.99,-463,208,-978,0.57,-0.4,-0.38,0.61,92.1,2.84,-67.07,28.12,walking
477,6222654,-576.9,-1821.11,708.07,12.47,20.08,33.95,-463,208,-978,0.57,-0.44,-0.34,0.6,88.31,7.62,-67.32,29.02,-817.2,-1458.44,498.6,-19.42,-95.31,63.26,-463,208,-978,0.54,-0.47,-0.32,0.62,88.64,13.38,-68.41,28.13,walking
478,6222710,-722.78,-2000,601.62,15.67,-80.57,4.77,-463,208,-978,0.54,-0.48,-0.31,0.62,87.78,14.24,-68.78,29.02,-222.11,-1569.09,824.46,31.01,-2.51,-165.35,-253,242,-934,0.6,-0.45,-0.32,0.58,83.6,8.27,-66.34,28.12,walking
479,6222785,77.94,-2000,961.3,-17.19,-53.34,-7.03,-253,242,-934,0.62,-0.42,-0.35,0.56,82.97,2.59,-66.01,29.02,-275.7,-2000,317.08,26.57,5.44,-76.51,-253,242,-934,0.62,-0.45,-0.35,0.54,80.08,2.38,-69.34,28.12,walking
480,6222842,150.09,-2000,587.89,56.99,148.58,-21.48,-253,242,-934,0.65,-0.46,-0.33,0.5,74.38,1.58,-69.03,29.04,457.76,-1712.77,856.99,38.64,100.15,-94.96,-219,263,-988,0.69,-0.43,-0.34,0.47,71.06,-3.97,-66.43,28.15,walking
481,6222898,917.18,-1624.76,1400.27,32.04,-27.95,-43.97,-219,263,-988,0.73,-0.36,-0.36,0.46,71.61,-11.27,-61.08,29.03,21.48,-2000,825.2,31.16,-95.1,-79.69,-219,263,-988,0.71,-0.36,-0.38,0.47,73.37,-11.56,-62.25,28.11,walking
482,6222954,290.77,-2000,1156.98,31.86,-57.22,-64.93,-219,263,-988,0.72,-0.35,-0.38,0.47,73.6,-12.73,-60.74,29.02,-201.17,-1952.76,816.89,17.54,9.61,-52.6,-459,-120,-968,0.69,-0.35,-0.38,0.51,78.92,-9.32,-61.7,28.13,walking
483,6223012,464.72,-1982.24,1092.9,21.37,-8.7,-54.67,-459,-120,-968,0.68,-0.32,-0.4,0.53,82.92,-11.65,-60.93,29.02,-134.52,-2000,867.37,17.83,-20.92,-43.79,-459,-120,-968,0.65,-0.33,-0.4,0.56,86.56,-9.11,-61.92,28.12,walking
484,6223068,254.94,-1942.14,1155.4,26.08,-34.22,-65.38,-459,-120,-968,0.65,-0.3,-0.41,0.57,89.17,-10.7,-60.39,29.04,-282.35,-1897.58,830.08,12.57,-33.04,-43.26,-387,-104,-922,0.62,-0.32,-0.4,0.59,91.2,-7.3,-61.75,28.14,walking
485,6223125,321.66,-1953.25,1052.43,27.26,-31.33,-55.02,-387,-104,-922,0.63,-0.3,-0.41,0.59,92.41,-9.49,-61,29.01,-203.8,-1970.34,805.3,15.43,-29.91,-43.33,-387,-104,-922,0.61,-0.32,-0.41,0.6,93.53,-7.02,-62.44,28.16,walking
486,6223181,214.84,-1929.57,1097.05,30.83,-23.13,-60.36,-387,-104,-922,0.62,-0.3,-0.41,0.6,93.81,-8.55,-60.9,29.01,-223.82,-1932.13,842.35,13.54,-7.51,-47.5,-387,-104,-922,0.6,-0.32,-0.41,0.61,93.92,-5.92,-61.99,28.13,walking
487,6223238,422.24,-1953.61,1089.23,35.42,-30.73,-62.13,-388,317,-880,0.65,-0.32,-0.39,0.56,87.12,-9.06,-60.39,29.01,-166.2,-1990.78,807.74,16,-15.26,-54.92,-388,317,-880,0.66,-0.35,-0.38,0.54,82.7,-6.74,-62.09,28.13,walking
488,6223295,165.59,-2000,1075.32,30.56,-49.12,-57.9,-388,317,-880,0.68,-0.35,-0.37,0.52,80,-7.99,-61.16,28.98,-431.34,-2000,697.27,10.54,-15.77,-77.06,-388,317,-880,0.68,-0.39,-0.36,0.51,77.27,-4.76,-63.51,28.11,walking
489,6223350,101.87,-2000,897.77,12.7,-42.94,-54.62,-388,317,-880,0.69,-0.39,-0.36,0.5,76.13,-6.12,-63.85,29.03,-490.84,-2000,538.88,14.76,-27.52,-110.65,-466,321,-853,0.68,-0.42,-0.35,0.49,74.63,-4.03,-66.42,28.14,walking
490,6223407,27.95,-2000,905.33,1.4,-61.31,-22.66,-466,321,-853,0.68,-0.41,-0.36,0.49,75.27,-4.45,-66.23,29.03,-498.54,-2000,360.35,20.53,-59.48,-155.33,-466,321,-853,0.67,-0.43,-0.37,0.48,74.53,-4.24,-69.14,28.12,walking
491,6223462,-237.18,-2000,543.82,-50.96,-128.32,15.59,-466,321,-853,0.64,-0.45,-0.38,0.5,77.56,-2.1,-72.38,29.02,-382.87,-2000,436.58,27.66,-88.57,-175.04,-470,317,-772,0.65,-0.45,-0.39,0.48,76.71,-4.38,-72.96,28.15,walking
492,6223533,545.47,-2000,1348.82,-69.42,-43.26,52.74,-470,317,-772,0.67,-0.41,-0.39,0.48,76.35,-7.07,-68.86,29.01,248.54,-2000,1379.52,1.53,98.87,-66.33,-470,317,-772,0.71,-0.4,-0.36,0.46,71.5,-7.56,-64.62,28.13,walking
493,6223589,1063.84,-2000,1224.18,-81.19,77.68,91.42,-470,317,-772,0.71,-0.4,-0.36,0.45,70.39,-9.05,-65.24,29.03,545.78,-1575.81,1029.85,-27.31,22.86,14.76,-136,25,-750,0.71,-0.37,-0.38,0.46,73.61,-11.46,-63.5,28.14,walking
494,6223645,954.28,-2000,1066.47,-39.79,38.16,117.32,-136,25,-750,0.7,-0.36,-0.4,0.48,76.84,-11.95,-64.12,29.03,566.04,-1370.79,950.93,-50.97,24.25,133.79,-136,25,-750,0.68,-0.35,-0.39,0.5,79.55,-10.75,-63.23,28.13,walking
495,6223703,915.47,-1872.99,988.71,-20.06,32.85,138.76,-136,25,-750,0.67,-0.35,-0.4,0.52,81.81,-10.76,-63.62,29.02,482.3,-1417.24,861.88,-83.16,-30.15,206.92,-194,350,-852,0.66,-0.38,-0.39,0.52,80.59,-6.77,-65.54,28.15,walking
496,6223758,880.19,-1486.15,997.38,-10.08,51.1,120.19,-194,350,-852,0.69,-0.38,-0.37,0.5,76.58,-7.9,-63.51,29.02,496.22,-1323.12,850.52,-85.1,-21.18,249.99,-194,350,-852,0.67,-0.4,-0.36,0.51,77.2,-4.28,-64.83,28.13,walking
497,6223815,865.17,-1368.65,863.1,-2.24,61.11,53.45,-194,350,-852,0.71,-0.38,-0.36,0.47,73.1,-8.39,-63,29.03,126.16,-1771.91,752.32,-95.63,-21.97,249.99,-429,427,-880,0.67,-0.44,-0.34,0.5,74.89,-1.23,-67.29,28.13,walking
498,6223872,187.93,-2000,872.62,-10.1,39.6,65.8,-429,427,-880,0.67,-0.45,-0.33,0.49,72.24,-0.24,-67.29,29.04,-216.8,-1940.25,694.82,-49.38,-6.46,247.31,-429,427,-880,0.64,-0.49,-0.3,0.52,73.16,6.79,-69.28,28.13,walking
499,6223927,-676.94,-2000,393.55,21.25,-38.57,21.64,-429,427,-880,0.63,-0.51,-0.28,0.52,72.03,10.24,-71.2,29.02,-508.3,-1636.47,741.64,29.26,-98.66,-24.14,-429,427,-880,0.63,-0.49,-0.27,0.53,72.96,10.17,-68.48,28.13,walking
500,6223985,-48.28,-1812.26,951.42,27.79,-126.65,15.92,-402,372,-907,0.65,-0.45,-0.29,0.54,76.06,6.31,-65.1,29.01,-22.58,-1883.73,949.83,50.09,-10.64,-193.33,-402,372,-907,0.69,-0.43,-0.31,0.5,72.53,0.4,-63.47,28.12,walking
501,6224040,703.86,-2000,728.39,13.2,50.1,-46.03,-402,372,-907,0.71,-0.42,-0.34,0.46,69.62,-5.77,-64.88,29.05,-200.99,-2000,586.79,34.47,115.78,-56.88,-402,372,-907,0.71,-0.44,-0.32,0.45,66.46,-2.96,-65.99,28.12,walking
502,6224096,359.19,-2000,867.92,32.75,130.58,-78.19,-356,326,-905,0.73,-0.43,-0.31,0.42,63.22,-5.56,-64.79,29.01,162.78,-1623.54,867.13,35.94,113.72,-87.1,-356,326,-905,0.75,-0.42,-0.31,0.41,61.57,-6.26,-62.69,28.13,walking
503,6224153,772.46,-1679.81,1464.6,37.48,-29.91,-48.89,-356,326,-905,0.77,-0.36,-0.33,0.42,63.83,-12.17,-57.78,29.04,100.46,-2000,883.3,32.55,-61.81,-76.62,-356,326,-905,0.75,-0.36,-0.35,0.43,66.15,-12.39,-59.18,28.12,walking
504,6224210,335.33,-2000,1066.1,42.27,-39.74,-67.54,-226,331,-924,0.76,-0.35,-0.35,0.43,66.66,-13.65,-58.71,29.01,-101.26,-1969.54,772.46,14.63,0.82,-52.72,-226,331,-924,0.74,-0.38,-0.34,0.43,66.53,-10.67,-60.79,28.15,walking
505,6224266,474.06,-1994.38,1046.69,20.4,-15.8,-60.61,-226,331,-924,0.75,-0.37,-0.35,0.42,66.57,-12.83,-60.53,29.01,-109.19,-2000,776.92,15.72,-10.96,-39.91,-226,331,-924,0.74,-0.39,-0.34,0.43,67.02,-9.73,-62.32,28.13,walking
506,6224322,293.33,-1907.23,1048.4,31.2,-25.78,-70.82,-456,427,-934,0.74,-0.37,-0.35,0.43,66.9,-11.38,-60.98,29.01,-282.96,-1865.6,763.98,12.1,-24.02,-39.21,-456,427,-934,0.73,-0.4,-0.33,0.44,67.45,-7.65,-62.44,28.11,walking
507,6224379,293.82,-2000,1010.31,28.17,-17.38,-63.37,-456,427,-934,0.74,-0.39,-0.34,0.44,67.17,-9.48,-61.78,29,-241.58,-2000,774.66,15.45,-0.43,-39.26,-456,427,-934,0.73,-0.41,-0.33,0.44,67.12,-6.32,-63.16,28.11,walking
508,6224435,227.72,-1929.63,1021.12,38.21,14.63,-76.77,-456,427,-934,0.74,-0.4,-0.33,0.43,65.83,-8.07,-61.5,29.01,-309.63,-1918.27,775.39,12.37,11.43,-46.02,-415,475,-934,0.73,-0.42,-0.31,0.44,64.87,-4.51,-62.88,28.13,walking
509,6224491,119.81,-2000,1048.16,32.71,-39.32,-69.65,-415,475,-934,0.74,-0.41,-0.31,0.44,65,-6.34,-61.83,29,-471.13,-1958.74,740.23,10.51,-11.73,-75.33,-415,475,-934,0.73,-0.43,-0.3,0.44,64.46,-3.21,-63.5,28.12,walking
510,6224548,68.73,-2000,1026.49,18.2,-34.37,-56.33,-415,475,-934,0.73,-0.42,-0.31,0.44,64.81,-4.67,-62.81,29.01,-383.91,-2000,681.58,5.39,-10.44,-103.96,-463,427,-873,0.72,-0.44,-0.31,0.44,64.5,-3.27,-64.87,28.13,walking
511,6224604,229.37,-2000,929.38,-3.06,-17.9,-43.94,-463,427,-873,0.72,-0.43,-0.32,0.43,65.14,-5.33,-65.05,29.02,-413.45,-2000,605.47,5.03,-26.54,-138.15,-463,427,-873,0.72,-0.45,-0.32,0.43,64.93,-4.58,-67.05,28.15,walking
512,6224661,-229.25,-2000,747.07,-27.18,-58.82,-7.37,-463,427,-873,0.7,-0.46,-0.32,0.45,67.01,-2.33,-68.62,29.02,-666.26,-2000,294.98,8.42,-39.18,-181.2,-468,456,-841,0.69,-0.49,-0.33,0.43,65.67,-1.94,-71.92,28.12,walking
513,6224718,238.22,-2000,798.46,-87.46,-75.54,22.95,-468,456,-841,0.68,-0.48,-0.35,0.43,67.53,-3.16,-73.33,29.02,326.6,-2000,1068.66,30.9,-33.16,-134.27,-468,456,-841,0.71,-0.44,-0.36,0.41,66.24,-8.53,-69.28,28.1,walking
514,6224773,647.4,-2000,1336.61,-69.28,-32.66,47.6,-468,456,-841,0.72,-0.43,-0.36,0.42,67.01,-9.61,-67.76,29.02,621.03,-2000,1110.9,1.69,49.88,-61.56,-468,456,-841,0.74,-0.41,-0.36,0.4,64.42,-12.19,-65.5,28.14,walking
515,6224831,1104.74,-2000,1136.96,-58.79,66.12,87.68,-221,326,-852,0.74,-0.41,-0.37,0.39,64.5,-13.06,-65.66,29.01,313.9,-1603.58,972.11,-21.93,26.43,49.22,-221,326,-852,0.74,-0.41,-0.35,0.41,64.97,-10.65,-64.29,28.12,walking
516,6224886,932.07,-1919.98,937.68,-16.91,55.97,129.59,-221,326,-852,0.73,-0.41,-0.35,0.42,65.94,-10.37,-64.66,29.03,587.22,-1407.59,879.15,-48.22,44.45,141.31,-221,326,-852,0.73,-0.41,-0.35,0.43,66.76,-8.94,-64.32,28.13,walking
517,6224942,834.23,-1766.05,990.91,-4.27,49.87,133.51,-251,442,-973,0.73,-0.4,-0.34,0.43,66.43,-8.62,-63.51,29.02,402.04,-1443.3,873.54,-71.99,-13.12,220.68,-251,442,-973,0.71,-0.42,-0.33,0.46,68.6,-4.86,-64.57,28.11,walking
518,6224999,824.16,-1518.55,909.61,7.6,65.95,110.64,-251,442,-973,0.73,-0.41,-0.33,0.44,67.14,-6.76,-62.87,29.01,449.22,-1636.05,744.87,-69.63,-4.52,249.99,-251,442,-973,0.67,-0.46,-0.32,0.48,71.27,0.31,-67.78,28.11,walking
519,6225075,647.95,-1592.83,771.24,-6.8,58.59,35.45,-319,401,-986,0.7,-0.44,-0.34,0.46,69.27,-4.04,-66.93,29.01,-236.63,-2000,744.69,-63.84,0.66,249.99,-319,401,-986,0.65,-0.48,-0.3,0.5,71.36,4.63,-69.42,28.1,walking
520,6225131,-249.69,-2000,666.08,16.91,91.96,49.89,-319,401,-986,0.66,-0.5,-0.28,0.49,68.75,7.51,-69.79,29.02,-249.08,-1570.74,637.08,-7.99,-82.74,117.85,-319,401,-986,0.64,-0.5,-0.27,0.52,72.2,9.93,-69,28.13,walking
521,6225186,-440.92,-2000,607.91,30.21,-113.98,31.72,-470,-106,-954,0.59,-0.48,-0.31,0.58,81.53,11,-68.55,29.02,-311.65,-1664.79,778.99,43.73,-101.45,-107.86,-470,-106,-954,0.59,-0.43,-0.34,0.6,86.72,7.15,-66.27,28.13,walking
522,6225244,137.51,-1990.66,1279.79,16.66,-89.96,-11.74,-470,-106,-954,0.59,-0.38,-0.36,0.62,91.78,2.73,-63.05,29.05,-1084.23,-2000,558.23,1.33,108.94,-2.26,-470,-106,-954,0.56,-0.44,-0.33,0.62,89.86,10.35,-66.12,28.11,walking
523,6225300,-584.17,-2000,757.75,7.67,112.53,-35.21,-468,-97,-986,0.56,-0.46,-0.32,0.61,87.6,12.29,-67.51,29.02,454.47,-2000,594.12,29.56,186,-96.58,-468,-97,-986,0.59,-0.45,-0.35,0.57,83.61,5.91,-69.27,28.13,walking
524,6225357,1099.49,-1608.03,1065.43,36.93,40.95,-16.08,-468,-97,-986,0.63,-0.38,-0.39,0.56,85.53,-4.24,-65.31,29.01,484.01,-1972.05,961.24,53.57,-94.1,-87.1,-468,-97,-986,0.63,-0.32,-0.42,0.56,89.44,-9.73,-63.8,28.11,walking
525,6225413,261.78,-2000,1333.56,32.46,-110.42,-60.52,-468,-97,-986,0.63,-0.28,-0.43,0.58,92.83,-11.86,-61.06,29.02,-246.22,-2000,873.84,13.41,-23.81,-65.39,-321,-120,-934,0.62,-0.31,-0.42,0.59,93.4,-8.8,-62.17,28.12,walking
526,6225469,489.32,-1994.63,1087.28,21.03,1.11,-69.28,-321,-120,-934,0.63,-0.29,-0.43,0.59,93.06,-11.43,-61.28,29.01,-84.35,-1975.34,744.2,12.82,3.21,-42.14,-321,-120,-934,0.61,-0.31,-0.42,0.59,93.36,-8.88,-63.03,28.14,walking
527,6225525,252.32,-1970.46,1040.28,27.66,-6.36,-71.26,-321,-120,-934,0.62,-0.3,-0.42,0.59,93.24,-10.23,-61.85,29.02,-376.16,-1900.57,767.46,7.95,-3.67,-38.5,-199,-85,-988,0.61,-0.33,-0.41,0.6,92.76,-5.49,-63.34,28.13,walking
528,6225586,200.01,-1924.87,890.75,28.56,-10.4,-61.33,-199,-85,-988,0.61,-0.32,-0.41,0.59,92.51,-7.42,-62.97,29.02,-180.3,-1977.6,743.35,15.27,0.22,-47.75,-199,-85,-988,0.6,-0.34,-0.41,0.59,92.27,-5.29,-64.26,28.12,walking
529,6225642,284.85,-2000,1062.5,26.6,-1.32,-64.45,-199,-85,-988,0.62,-0.32,-0.41,0.59,91.81,-7.71,-62.75,29.01,-195.19,-1942.32,809.08,12.92,6.32,-51.13,-168,328,-954,0.64,-0.37,-0.38,0.56,85.12,-3.77,-64,28.13,walking
530,6225697,343.75,-1933.23,1048.65,36.52,4.91,-67.5,-168,328,-954,0.67,-0.37,-0.37,0.53,80.14,-5.76,-62.34,29.02,-252.44,-1994.93,796.57,13.95,1.42,-59.58,-168,328,-954,0.68,-0.4,-0.34,0.51,76.69,-3.12,-63.76,28.11,walking
531,6225754,121.83,-1968.75,1039.31,34.56,-29.57,-68.34,-168,328,-954,0.69,-0.39,-0.34,0.5,74.74,-4.8,-62.42,29.02,-425.72,-2000,680.91,7.97,-8.69,-84.13,-168,328,-954,0.69,-0.42,-0.33,0.49,72.6,-2.2,-64.73,28.11,walking
532,6225811,156.01,-2000,926.09,9.53,-21.36,-60.54,-470,324,-988,0.69,-0.41,-0.34,0.48,72.73,-4.7,-64.58,29.03,-343.99,-2000,482.73,6.33,-14.84,-116.93,-470,324,-988,0.68,-0.43,-0.35,0.47,72.26,-4,-67.39,28.12,walking
533,6225867,19.71,-2000,881.53,-4.16,-59.67,-22.2,-470,324,-988,0.68,-0.42,-0.36,0.48,73.97,-4.2,-67.28,29.03,-440.61,-2000,406.01,11.03,-48.28,-160.5,-470,324,-988,0.67,-0.44,-0.37,0.47,73.71,-4.38,-69.88,28.14,walking
534,6225923,-150.94,-2000,589.05,-71.18,-92.67,10.98,-353,-63,-986,0.61,-0.44,-0.4,0.52,82.3,-2.18,-73.05,29.01,-245.67,-2000,690.61,22.07,-68.17,-161.25,-353,-63,-986,0.61,-0.41,-0.42,0.53,85.73,-4.34,-72,28.11,walking
