,timestamp,top_accel_x,top_accel_y,top_accel_z,top_mag_x,top_mag_y,top_mag_z,top_gy_x,top_gy_y,top_gy_z,top_q0,top_qx,top_qy,top_qz,top_yaw,top_pitch,top_roll,top_temperature,bottom_accel_x,bottom_accel_y,bottom_accel_z,bottom_mag_x,bottom_mag_y,bottom_mag_z,bottom_gy_x,bottom_gy_y,bottom_gy_z,bottom_q0,bottom_qx,bottom_qy,bottom_qz,bottom_yaw,bottom_pitch,bottom_roll,bottom_temperature,action
0,5221750,854.43,-1820.5,914.67,19.34,13.32,126.5,-470,-277,-118,-0.31,0.09,0.5,-0.81,143.98,-9.02,-60.65,28.55,423.46,-1528.44,967.53,-33.21,-2.28,173.96,-470,-277,-118,-0.29,0.11,0.5,-0.81,144.59,-6.93,-61.93,28.36,walking
1,5221807,798.4,-1750.37,830.93,36.99,-5.29,127.28,-470,-277,-118,-0.3,0.09,0.52,-0.8,144.79,-9.18,-62.92,28.56,387.94,-1599.73,827.94,-45.59,-42.92,242.3,-470,-277,-118,-0.26,0.11,0.53,-0.8,147.24,-5.54,-65.42,28.4,walking
2,5221864,655.4,-1656.37,898.07,31.2,-13.47,107.15,-217,-279,-123,-0.26,0.09,0.52,-0.81,148.4,-7.02,-63.6,28.53,196.9,-1759.4,896.55,-65.16,-42.23,249.99,-217,-279,-123,-0.22,0.12,0.53,-0.81,151.39,-1.48,-65.81,28.4,walking
3,5221921,487.12,-1798.89,975.52,32.57,22.78,80.44,-217,-279,-123,-0.23,0.12,0.52,-0.81,150.03,-2.9,-64.19,28.54,91.06,-2000,620.36,-75.49,-42.32,249.99,-217,-279,-123,-0.18,0.15,0.55,-0.8,152.65,2.43,-69.15,28.37,walking
4,5221977,-88.13,-1870.54,413.88,46.2,59.98,41.98,-361,-325,-108,-0.2,0.18,0.56,-0.79,149.59,3.61,-71.44,28.53,-622.07,-1815.31,457.64,-45.02,5.53,155.18,-361,-325,-108,-0.15,0.23,0.56,-0.78,149.75,10.75,-74.36,28.37,walking
5,5222034,-762.33,-2000,623.41,-14.51,41.47,12.9,-361,-325,-108,-0.15,0.26,0.56,-0.77,147.6,13.52,-75.48,28.53,-368.59,-1718.2,933.59,22.64,139.12,-63.66,-361,-325,-108,-0.2,0.26,0.53,-0.78,143.43,11.63,-72.6,28.39,walking
6,5222090,284.85,-1823.43,1216.67,-13.21,65.08,-15.25,-361,-325,-108,-0.24,0.23,0.52,-0.79,141.88,6.21,-69.1,28.53,-156.86,-2000,-7.14,32.39,32.68,-33.62,-361,-280,-118,-0.26,0.24,0.56,-0.75,139,4.6,-75.01,28.38,walking
7,5222147,-74.71,-2000,84.78,-18.2,11.39,-24.28,-361,-280,-118,-0.26,0.25,0.58,-0.73,138.55,3.54,-78.82,28.53,206.3,-2000,842.9,47.36,-3.31,-114.23,-361,-280,-118,-0.29,0.2,0.57,-0.74,138.86,-1.71,-73.8,28.39,walking
8,5222203,899.9,-1580.44,1286.8,8.84,35.4,-68.4,-361,-280,-118,-0.34,0.14,0.54,-0.76,137.65,-9.19,-67.35,28.54,109.19,-2000,925.35,37.59,-10.34,-69.54,-470,-270,-67,-0.34,0.13,0.52,-0.77,137.97,-8.77,-64.89,28.39,walking
9,5222266,434.81,-2000,917.42,20.23,17.17,-74.46,-470,-270,-67,-0.36,0.11,0.52,-0.77,136.97,-11.36,-63.57,28.54,-19.04,-1907.65,840.7,21.6,21.34,-54.11,-470,-270,-67,-0.35,0.13,0.51,-0.77,136.68,-8.8,-63,28.39,walking
10,5222323,584.53,-2000,991.7,18.8,-7.1,-65.99,-470,-270,-67,-0.37,0.11,0.51,-0.77,136.56,-12.04,-62.16,28.54,-7.32,-1994.81,839.23,16.29,-17.96,-44.14,-447,-337,-82,-0.34,0.12,0.51,-0.78,138.36,-9.31,-62.27,28.38,walking
11,5222379,502.5,-1964.78,998.47,15.4,-21.82,-71.65,-447,-337,-82,-0.35,0.1,0.51,-0.78,139.09,-11.82,-61.45,28.54,-179.02,-1938.9,834.05,11.65,-40.49,-41.05,-447,-337,-82,-0.32,0.11,0.51,-0.79,140.89,-8.39,-62.17,28.38,walking
12,5222436,384.34,-1967.22,914.12,14.95,-27.82,-61.55,-447,-337,-82,-0.33,0.1,0.51,-0.79,141.49,-10.61,-62.25,28.54,-201.35,-1942.63,800.66,12.16,-21.45,-40.99,-280,-335,-98,-0.3,0.11,0.51,-0.8,143.68,-7.07,-62.86,28.38,walking
13,5222492,448.24,-1928.47,976.2,20.75,1.69,-72.46,-280,-335,-98,-0.31,0.09,0.51,-0.8,143.98,-9.85,-61.84,28.54,-68.54,-1945.25,785.95,8.03,6.82,-38.71,-280,-335,-98,-0.29,0.11,0.51,-0.8,144.8,-7.34,-62.84,28.38,walking
14,5222580,476.01,-1989.99,1038.57,11.49,-21.28,-64,-280,-335,-98,-0.31,0.05,0.51,-0.8,146.36,-13.91,-61.2,28.53,-304.2,-2000,764.95,7.63,-29.84,-54.38,-361,-338,-121,-0.29,0.08,0.52,-0.8,146.4,-9.72,-63.45,28.39,walking
15,5222637,135.56,-2000,849.98,4.17,-53.48,-57.91,-361,-338,-121,-0.29,0.08,0.53,-0.79,146.83,-10.22,-64.59,28.54,-447.08,-2000,576.48,6.82,-30.01,-80.96,-361,-338,-121,-0.27,0.11,0.54,-0.79,146.72,-6.79,-67.03,28.39,walking
16,5222694,295.9,-2000,839.11,-13.25,-42.18,-47.39,-361,-338,-121,-0.28,0.1,0.55,-0.78,147.15,-8.91,-67.67,28.51,-330.69,-2000,754.03,8.9,-18.55,-116.23,-361,-229,-98,-0.28,0.11,0.55,-0.78,145.3,-7.79,-68.52,28.38,walking
17,5222751,28.75,-2000,1061.16,-24.53,-31.95,-11.98,-361,-229,-98,-0.28,0.12,0.55,-0.78,144.97,-6.86,-68.01,28.52,-681.46,-2000,711.98,-3.76,14.81,-146.12,-361,-229,-98,-0.29,0.15,0.55,-0.77,142.29,-4.34,-69.13,28.37,walking
18,5222807,89.6,-2000,147.03,-39.59,7.91,36.15,-361,-229,-98,-0.27,0.18,0.59,-0.74,142.26,-3.18,-75.48,28.54,105.04,-1990.84,963.62,34.65,-6.05,-141.01,-420,-173,-123,-0.32,0.15,0.57,-0.74,139.92,-8.12,-72.37,28.39,walking
19,5222864,597.11,-2000,1135.56,-43.08,18.36,37.03,-420,-173,-123,-0.33,0.14,0.57,-0.74,138.38,-9.51,-71.07,28.53,509.34,-2000,1184.14,32.46,112.53,-101.87,-420,-173,-123,-0.39,0.13,0.54,-0.74,132.78,-12.66,-66.5,28.37,walking
20,5222920,1353.21,-2000,872.38,-43.82,29.75,79.51,-420,-173,-123,-0.4,0.12,0.55,-0.72,132.65,-15.84,-67.99,28.53,399.05,-1523.86,926.27,6.61,-5.68,-2.13,-420,-173,-123,-0.4,0.12,0.53,-0.73,132.31,-15.03,-65.27,28.37,walking
21,5222977,819.21,-1838.93,959.47,-12.26,-12.89,109.77,-470,-120,-121,-0.4,0.12,0.54,-0.73,132.87,-15.01,-66.02,28.55,334.47,-1456.67,1170.78,-35.38,30.2,118.33,-470,-120,-121,-0.4,0.14,0.51,-0.75,131.61,-11.46,-63.89,28.38,walking
22,5223033,868.29,-1755.8,1000.24,11.09,16.72,135.34,-470,-120,-121,-0.4,0.13,0.52,-0.75,131.29,-12.32,-63.76,28.54,409.12,-1523.68,977.48,-80.33,-31.94,249.99,-468,-210,-123,-0.26,0.22,0.51,-0.79,140.82,4.47,-66.99,28.38,walking
23,5223145,718.44,-1585.88,939.03,17.83,7.37,95.2,-468,-210,-123,-0.3,0.18,0.52,-0.78,139.29,-2.13,-66.27,28.54,250.79,-1777.34,878.36,-91.46,-41.42,249.99,-468,-210,-123,-0.27,0.2,0.53,-0.78,141.31,0.99,-69.31,28.37,walking
24,5223200,490.78,-1899.72,931.58,34.04,41.84,61.92,-466,-308,-125,-0.29,0.18,0.52,-0.78,140.13,-1.44,-67.18,28.55,-24.84,-1989.07,546.63,-87.85,-9.41,249.99,-466,-308,-125,-0.24,0.22,0.54,-0.77,142.31,4.69,-71.82,28.38,walking
25,5223257,-578.74,-1880.19,659.73,50.27,97.21,12.49,-466,-308,-125,-0.24,0.26,0.52,-0.78,138.9,8.74,-70.99,28.51,-1060.85,-1739.62,317.87,-9.74,13.99,74.37,-466,-308,-125,-0.21,0.32,0.52,-0.77,137.87,15.79,-74.13,28.38,walking
26,5223313,-493.35,-1969.91,702.39,-4.59,-35.5,19.27,-466,-308,-125,-0.22,0.31,0.52,-0.77,138.15,14.19,-73.86,28.55,-124.88,-1705.2,1122.99,55.53,118.87,-116.42,-415,-284,-17,-0.27,0.27,0.49,-0.78,135.4,9.39,-67.84,28.39,walking
27,5223371,978.82,-2000,729,-24.76,185.2,-77.35,-415,-284,-17,-0.34,0.25,0.51,-0.75,130.23,0.94,-69.26,28.54,265.5,-2000,406.62,46.83,93.79,-110.31,-415,-284,-17,-0.36,0.23,0.51,-0.74,128.89,-1.53,-68.54,28.4,walking
28,5223427,1283.45,-1759.7,1079.59,15.72,-45.56,-69.24,-415,-284,-17,-0.39,0.14,0.51,-0.75,131.8,-11,-63.47,28.53,419.49,-1406.43,1336.61,42.61,-8.58,-92.88,-412,-338,90,-0.39,0.09,0.45,-0.8,134.66,-11.72,-53.29,28.39,walking
29,5223483,783.51,-2000,903.26,9.98,0.7,-78.32,-412,-338,90,-0.37,0.06,0.46,-0.81,137.69,-14.11,-53.59,28.54,-195.01,-2000,881.53,19,-17.14,-66.51,-412,-338,90,-0.33,0.08,0.45,-0.82,141.07,-9.45,-54.17,28.39,walking
30,5223540,453.67,-1896.61,1029.42,10.29,9.83,-69.47,-412,-338,90,-0.33,0.07,0.45,-0.83,142.56,-10.44,-53.79,28.53,100.89,-2000,897.89,17,15.35,-50,-446,-226,114,-0.32,0.09,0.46,-0.82,142.79,-8.55,-55.61,28.4,walking
31,5223595,594.85,-2000,967.9,10.86,-17.01,-75.98,-446,-226,114,-0.32,0.06,0.48,-0.82,143.19,-11.79,-56.56,28.52,-10.5,-1961.79,792.91,2.19,-19.08,-38.25,-446,-226,114,-0.3,0.08,0.48,-0.82,144.73,-8.99,-58.29,28.39,walking
32,5223653,521,-1937.07,920.04,9.18,-1.99,-80.6,-446,-226,114,-0.31,0.06,0.49,-0.81,144.79,-11.66,-58.38,28.52,-136.66,-1927.8,764.16,1,-15.09,-28.51,-446,-226,114,-0.28,0.09,0.49,-0.82,146.31,-7.72,-59.7,28.4,walking
33,5223709,322.2,-1964.05,883.12,19.72,-6.71,-78.99,-273,-202,90,-0.28,0.07,0.48,-0.83,148.03,-8.97,-58.01,28.53,-316.96,-1942.08,742.13,0.31,-3.7,-33.98,-273,-202,90,-0.25,0.09,0.48,-0.84,149.85,-4.59,-58.8,28.4,walking
34,5223764,277.04,-1939.76,998.17,3.02,32.1,-82.42,-273,-202,90,-0.26,0.08,0.48,-0.84,149.54,-6.13,-57.78,28.54,-131.16,-1972.11,776,-3.2,36.21,-45.56,-273,-202,90,-0.24,0.1,0.48,-0.84,149.89,-3.44,-58.85,28.37,walking
35,5223821,543.15,-2000,942.93,-1.32,33.4,-81.28,-358,-174,104,-0.27,0.08,0.5,-0.82,148.13,-8.03,-60.06,28.54,-242.07,-2000,666.08,-4.78,17.41,-57.26,-358,-174,104,-0.26,0.11,0.5,-0.82,148.12,-4.98,-61.78,28.39,walking
36,5223877,96.86,-1998.23,800.42,-18.97,-9.34,-64.87,-358,-174,104,-0.26,0.1,0.51,-0.81,148.46,-5.42,-62.8,28.55,-480.83,-1914.37,558.53,-0.35,5.26,-88.51,-358,-174,104,-0.24,0.13,0.51,-0.81,148.32,-1.83,-64.17,28.39,walking
37,5224086,413.09,-2000,1328.98,-60.05,90.01,48.05,-380,-114,-123,-0.63,0.26,0.54,-0.5,95.3,-25,-72.28,28.52,616.39,-2000,1534.91,-6.2,175.45,-108.03,-380,-114,-123,-0.64,0.25,0.47,-0.55,93.27,-19.06,-62.32,28.39,walking
38,5224143,1344.48,-2000,1088.62,-58.07,108.02,76.24,-380,-114,-123,-0.62,0.25,0.45,-0.59,96.97,-15,-61.64,28.54,444.46,-1570.56,1049.01,-27.25,41.17,-25.43,-380,-114,-123,-0.6,0.25,0.43,-0.63,99.57,-11.47,-59.33,28.4,walking
39,5224201,925.6,-1870.12,1054.44,-30.66,26.93,113.19,-365,-102,-40,-0.56,0.26,0.43,-0.66,104.31,-7.93,-59.15,28.54,290.95,-1447.33,1317.93,-74.05,55.21,112.42,-365,-102,-40,-0.54,0.27,0.39,-0.69,106.32,-2.65,-57.18,28.4,walking
40,5224257,887.7,-1795.1,1067.14,0.87,55.78,137.42,-365,-102,-40,-0.52,0.26,0.4,-0.7,108.47,-2.8,-57.19,28.53,374.94,-1465.88,1201.05,-98.88,34.56,186.69,-365,-102,-40,-0.49,0.28,0.4,-0.72,111.27,0.7,-57.74,28.4,walking
41,5224314,835.33,-1690.61,1087.28,14.2,63.78,127.82,-436,-7,-13,-0.52,0.25,0.42,-0.7,109.71,-4.8,-57.73,28.52,328.86,-1562.5,1191.04,-127.17,21.8,249.99,-436,-7,-13,-0.49,0.27,0.42,-0.71,111.62,-1.56,-60.25,28.39,walking
42,5224370,747.68,-1609.31,1047.79,8.29,55.79,89.57,-436,-7,-13,-0.52,0.25,0.43,-0.69,110.06,-6.35,-59.6,28.54,380,-1835.57,997.31,-124.51,-6.63,249.99,-436,-7,-13,-0.48,0.28,0.45,-0.7,112.88,-2.75,-63.96,28.39,walking
43,5224426,655.7,-1797.85,648.8,23,97.43,67.12,-359,-104,-1,-0.48,0.28,0.45,-0.7,112.35,-2.79,-63.99,28.52,53.77,-2000,578.06,-71.56,24.68,249.99,-359,-104,-1,-0.43,0.33,0.45,-0.71,115.29,4.63,-67.44,28.39,walking
44,5224482,-422.85,-1908.81,685.49,54.87,90.48,14.66,-359,-104,-1,-0.43,0.35,0.42,-0.72,113.19,8.51,-66.7,28.54,-856.63,-1813.6,601.01,-3.85,58.05,100.29,-359,-104,-1,-0.39,0.4,0.4,-0.72,112.36,15.43,-68.39,28.39,walking
45,5224538,-397.58,-1994.08,853.58,4.62,-11.09,24.73,-359,-104,-1,-0.41,0.39,0.41,-0.72,112.32,12.96,-68.07,28.55,-146.3,-1729.61,1014.1,50.74,139.45,-73.15,-368,105,-17,-0.54,0.33,0.4,-0.67,101.65,0.53,-61.93,28.39,walking
46,5224594,1155.82,-1799.74,1152.16,-10.8,178.35,-84.3,-368,105,-17,-0.64,0.28,0.42,-0.58,91.42,-12.75,-59.5,28.55,481.2,-2000,-111.82,45.44,141.73,-101.61,-368,105,-17,-0.65,0.31,0.45,-0.52,87.65,-15.46,-65.73,28.37,walking
47,5224652,1326.9,-1924.01,1029.11,31.57,51.52,-72.34,-368,105,-17,-0.69,0.27,0.46,-0.49,84.59,-21.73,-62.97,28.54,345.64,-1446.04,1237.3,41.94,17.39,-85.63,-402,126,-10,-0.71,0.26,0.42,-0.51,82.18,-19.42,-57.2,28.37,walking
48,5224708,922.42,-2000,1021.48,27.33,41.14,-75.13,-402,126,-10,-0.71,0.26,0.43,-0.49,80.98,-20.64,-57.32,28.53,-211.06,-2000,773.99,23.57,-32.56,-62.79,-402,126,-10,-0.69,0.3,0.41,-0.52,82.45,-14.81,-59.89,28.37,walking
49,5224763,298.95,-1845.7,977.72,18.84,7.44,-63.87,-402,126,-10,-0.69,0.3,0.4,-0.51,81.3,-14.56,-59.67,28.54,34.73,-2000,937.26,24.33,37.48,-48.16,-402,126,-10,-0.69,0.32,0.39,-0.51,80.08,-11.76,-60.06,28.38,walking
50,5224835,547.85,-1986.82,940.61,13.88,8.87,-73.87,-412,208,-118,-0.73,0.31,0.41,-0.45,74.56,-18.73,-59.79,28.53,-35.58,-1959.41,720.83,6.68,-7.68,-42.64,-412,208,-118,-0.72,0.34,0.4,-0.46,74.6,-15.22,-62.09,28.39,walking
51,5224891,508.24,-1934.14,816.28,6.06,8.23,-74.82,-412,208,-118,-0.73,0.34,0.41,-0.44,72.71,-17.54,-62.74,28.54,-88.81,-1949.89,668.95,3.73,5.29,-34.43,-412,208,-118,-0.71,0.37,0.39,-0.44,72.49,-13.38,-64.71,28.39,walking
52,5224947,376.77,-1925.78,917.24,17.85,16.49,-76.68,-412,208,-118,-0.73,0.36,0.39,-0.43,70.17,-15.03,-63.45,28.54,-236.39,-1903.38,803.65,-0.78,28.31,-35.66,-464,-114,-96,-0.68,0.4,0.33,-0.52,75.82,-2.22,-62.77,28.39,walking
53,5225002,402.65,-1946.9,1004.09,7.34,68.16,-83.11,-464,-114,-96,-0.67,0.4,0.32,-0.53,77.4,-0.56,-62.02,28.52,-52.25,-1957.7,721.74,-3.8,60.51,-46.82,-464,-114,-96,-0.64,0.43,0.31,-0.55,79.09,4.06,-63.8,28.39,walking
54,5225058,557.07,-1976.62,892.03,-12.83,43.24,-76.9,-464,-114,-96,-0.64,0.42,0.34,-0.55,80,1.24,-64.69,28.52,-228.58,-1968.14,674.44,-3.75,11.25,-65.28,-436,321,-118,-0.69,0.41,0.33,-0.49,72.3,-3.26,-63.8,28.38,walking
55,5225116,248.72,-2000,669.13,-13.7,-15.88,-65.16,-436,321,-118,-0.73,0.4,0.35,-0.43,67.55,-9.13,-64.14,28.53,-440.55,-1899.96,548.83,1.75,-8.67,-91.93,-436,321,-118,-0.73,0.43,0.33,-0.41,64.16,-7.91,-65.24,28.38,walking
56,5225172,180.6,-2000,882.69,-25.28,-19.11,-31.81,-436,321,-118,-0.75,0.42,0.34,-0.39,61.57,-10.09,-64.81,28.54,-380.43,-2000,794.56,1.75,-7.41,-131.02,-348,331,144,-0.79,0.4,0.3,-0.36,55.26,-11.44,-59.23,28.39,walking
57,5225228,-288.02,-2000,902.89,-44.34,-28.48,9.89,-348,331,144,-0.8,0.4,0.28,-0.35,52.84,-9.31,-58.15,28.54,-615.66,-2000,347.47,-15.5,35.51,-152.52,-348,331,144,-0.81,0.43,0.25,-0.31,46.74,-8.23,-59.72,28.39,walking
58,5225284,57.43,-1830.93,1251.34,-54.04,41.58,27.17,-348,331,144,-0.83,0.42,0.22,-0.29,42.46,-7.13,-55.89,28.52,120.54,-2000,1313.05,-9.9,183.07,-112.94,-348,331,144,-0.87,0.41,0.18,-0.23,33.37,-7.04,-52.37,28.38,walking
59,5225340,931.03,-2000,1158.75,-52.57,159.34,54.22,-466,317,90,-0.86,0.44,0.18,-0.21,31.55,-6.87,-56.28,28.52,733.76,-1660.83,1126.83,-36.87,146.68,-97.15,-466,317,90,-0.86,0.44,0.19,-0.16,27.07,-10.16,-56.85,28.4,walking
60,5225396,1106.26,-2000,1051.27,-65.09,89.89,90.88,-466,317,90,-0.84,0.47,0.2,-0.16,27.59,-10.39,-61.19,28.53,215.52,-1494.14,1270.39,-79.77,53.18,29.18,-466,317,90,-0.85,0.48,0.17,-0.16,26.53,-7.68,-60.55,28.38,walking
61,5225452,820.31,-1870.06,1208.25,-23.11,78.36,120.7,-456,-113,-10,-0.81,0.51,0.11,-0.26,32.14,4.85,-62.68,28.55,417.97,-1481.63,1331.36,-108.21,65.08,117.34,-456,-113,-10,-0.79,0.53,0.08,-0.31,35.48,11.69,-64.26,28.39,walking
62,5225508,976.81,-1823,1108.58,-11.56,86.63,136.98,-456,-113,-10,-0.77,0.54,0.08,-0.32,37.5,12.84,-65.93,28.56,435.97,-1476.44,1248.47,-135.99,22.88,201.26,-456,-113,-10,-0.74,0.55,0.08,-0.37,41.98,16.94,-67.14,28.4,walking
63,5225566,899.29,-1651.55,1010.01,-7.32,79.06,115.07,-344,-116,-125,-0.72,0.56,0.11,-0.4,47.05,17.17,-68.03,28.53,429.44,-1555.54,1088.87,-151.65,29.46,249.99,-344,-116,-125,-0.67,0.57,0.11,-0.46,53.51,22,-69.62,28.39,walking
64,5225623,835.75,-1634.09,732.6,-9.45,76.81,94.32,-344,-116,-125,-0.67,0.57,0.16,-0.46,56.01,18.01,-71.13,28.53,370.61,-1908.26,846.5,-117.57,-15.72,249.99,-344,-116,-125,-0.62,0.58,0.17,-0.5,62.13,22,-73.06,28.39,walking
65,5225679,292.91,-1861.02,656.56,20.84,72.13,63.52,-378,276,-125,-0.7,0.54,0.17,-0.43,53.61,13.17,-68.97,28.54,-228.21,-2000,719.67,-43.54,-4.17,232.35,-378,276,-125,-0.7,0.55,0.15,-0.43,52.91,15.62,-68.57,28.39,walking
66,5225735,-748.05,-2000,914.25,74.13,20.7,26.24,-378,276,-125,-0.73,0.53,0.11,-0.42,49.45,16.27,-63.95,28.54,-799.19,-1762.51,737.98,28.4,-18.48,16.07,-378,276,-125,-0.74,0.53,0.09,-0.41,47.72,17.51,-63.07,28.4,walking
67,5225792,-170.47,-1878.72,1151.79,-3.83,-79.79,29.66,-378,276,-125,-0.76,0.5,0.12,-0.4,48.66,12.85,-60.48,28.56,249.02,-1941.89,710.21,75.45,170.6,-119.89,-431,216,122,-0.82,0.47,0.13,-0.31,38.79,4.62,-58.16,28.41,walking
68,5225848,33.87,-2000,-231.32,-37.64,235.3,-37.48,-431,216,122,-0.79,0.55,0.12,-0.24,31.02,4.24,-68.18,28.54,223.21,-2000,1069.34,61.26,140.5,-129.54,-431,216,122,-0.84,0.5,0.12,-0.18,24.44,-0.94,-62.39,28.39,walking
69,5225904,1539.37,-1617.68,905.76,7.72,119.67,-47.87,-431,216,122,-0.85,0.49,0.17,-0.1,20.43,-11.03,-61.31,28.52,951.6,-1761.29,990.36,50.23,-36.38,-73.1,-409,-106,36,-0.84,0.49,0.15,-0.17,25.26,-4.71,-62,28.39,walking
70,5225960,451.17,-2000,1029.91,16.95,-84.6,-65.52,-409,-106,36,-0.82,0.51,0.13,-0.23,30.24,1.51,-63.86,28.53,-214.36,-1883.79,987.85,18.3,-8.54,-68.36,-409,-106,36,-0.8,0.53,0.08,-0.27,32.08,9.04,-64.82,28.38,walking
71,5226017,684.63,-1995.36,1133.61,13.98,-0.02,-65.14,-409,-106,36,-0.8,0.53,0.11,-0.27,33.03,6.45,-65.63,28.53,262.82,-2000,790.34,13.66,19.94,-42.34,-388,331,-13,-0.81,0.52,0.13,-0.23,30.52,1.18,-65.11,28.39,walking
72,5226072,604.68,-2000,834.47,13.98,-1.5,-84.03,-388,331,-13,-0.82,0.51,0.18,-0.18,29.03,-5.9,-64.92,28.53,-104.68,-1916.75,735.53,-0.02,-20.5,-31.92,-388,331,-13,-0.81,0.52,0.17,-0.19,29.54,-4.43,-66.26,28.39,walking
73,5226129,383.97,-1907.17,860.47,11.48,3.43,-80.66,-388,331,-13,-0.82,0.51,0.19,-0.17,28.41,-8.32,-65.62,28.54,-171.08,-1912.84,697.33,-2.77,5.71,-28.22,-388,331,-13,-0.81,0.53,0.17,-0.18,28.53,-5.23,-67.22,28.4,walking
74,5226184,298.16,-1940.12,906.68,22.74,20.47,-89.09,-361,345,-10,-0.83,0.51,0.18,-0.15,26.31,-8.44,-65.25,28.53,-312.26,-1947.88,762.82,-3.25,17.41,-39.41,-361,345,-10,-0.82,0.53,0.16,-0.16,25.88,-4.7,-66.4,28.4,walking
75,5226240,425.96,-1974.98,954.28,-2.49,47.73,-82.2,-361,345,-10,-0.83,0.52,0.17,-0.13,23.59,-8.12,-65.62,28.54,-45.78,-2000,687.19,-7.4,45.25,-52.52,-361,345,-10,-0.82,0.54,0.15,-0.13,22.71,-6.14,-67.66,28.39,walking
76,5226296,480.47,-2000,875.43,-17.37,41.08,-79.94,-334,317,-13,-0.82,0.54,0.17,-0.1,21.18,-9.56,-68.05,28.54,-339.97,-2000,596.56,-10.51,21.42,-69.89,-334,317,-13,-0.81,0.56,0.15,-0.12,20.96,-5.96,-70.26,28.4,walking
77,5226352,152.28,-2000,625.18,-20.2,-0.49,-68.88,-334,317,-13,-0.8,0.57,0.15,-0.11,20.84,-7.16,-71.89,28.52,-396.61,-1996.34,579.71,-4.26,20.49,-103.8,-334,317,-13,-0.8,0.58,0.13,-0.11,19.81,-4.84,-72.63,28.39,walking
78,5226408,130.07,-2000,1129.39,-23.56,-26.46,-23.25,-226,331,-17,-0.82,0.55,0.13,-0.11,19.08,-5.48,-69.12,28.53,-631.71,-2000,605.77,-7.81,3.89,-143.74,-226,331,-17,-0.81,0.56,0.11,-0.11,17.37,-3.28,-70.07,28.38,walking
79,5226464,-144.04,-2000,671.2,-60.87,-7.29,23.43,-226,331,-17,-0.8,0.58,0.09,-0.12,17.58,-0.68,-72.14,28.52,-792.48,-2000,783.26,-17.12,24.09,-144.68,-226,331,-17,-0.8,0.58,0.07,-0.11,15.22,1.26,-71.39,28.37,walking
80,5226521,163.45,-2000,1243.41,-63.15,136.1,36.63,-226,331,-17,-0.82,0.57,0.04,-0.09,11.8,2.11,-69.45,28.55,632.08,-2000,1335.08,-6.07,206.55,-101.45,-470,321,-17,-0.83,0.56,0.05,-0.04,7.56,-2.18,-68.36,28.37,walking
81,5226577,1173.34,-2000,1054.93,-50.38,124.94,76.76,-470,321,-17,-0.81,0.58,0.07,-0.03,7.88,-4.6,-71.27,28.54,598.51,-1701.72,1063.54,-22.31,83.3,-44.3,-470,321,-17,-0.81,0.57,0.09,-0.01,7.27,-7.43,-70.96,28.41,walking
82,5226633,950.07,-1965.27,1069.09,-38.02,46.28,103.13,-470,321,-17,-0.8,0.59,0.1,-0.02,9.23,-7.45,-72.7,28.54,226.01,-1469.24,1306.46,-68.59,60.93,83.38,-468,319,-119,-0.81,0.58,0.08,-0.07,11.7,-2.49,-72.01,28.39,walking
83,5226691,894.84,-1806.58,1110.41,-4.08,55.92,134.7,-468,319,-119,-0.8,0.58,0.09,-0.09,15.05,-2.24,-72.25,28.52,376.65,-1457.64,1218.69,-87.98,35.26,161.98,-468,319,-119,-0.8,0.58,0.08,-0.13,18.46,1.29,-71.83,28.37,walking
84,5226746,877.69,-1711.85,1056.82,10.02,55.24,134.9,-468,319,-119,-0.8,0.57,0.11,-0.15,21.19,-0.16,-70.55,28.54,377.93,-1519.17,1093.2,-117.63,9.41,247.63,-415,375,-337,-0.78,0.57,0.11,-0.23,29.44,5.28,-71.6,28.38,walking
85,5226803,830.26,-1566.96,891.97,0.01,58.43,110.44,-415,375,-337,-0.78,0.56,0.15,-0.24,33.45,1.84,-70.4,28.53,443.91,-1651.31,998.17,-118.29,9.65,249.99,-415,375,-337,-0.76,0.56,0.16,-0.3,39.01,5.48,-71.54,28.37,walking
86,5226858,723.63,-1838.01,768.31,17.11,71.06,74.71,-415,375,-337,-0.76,0.55,0.19,-0.29,40.1,1.66,-70.76,28.53,133.61,-1878.72,718.38,-93.74,-18.76,249.99,-415,375,-337,-0.73,0.57,0.18,-0.34,44.74,7.18,-73.23,28.39,walking
87,5226914,-75.99,-1962.83,471.98,26.85,62.74,54.05,-336,319,-123,-0.75,0.57,0.16,-0.31,40.48,6.78,-72.15,28.54,-566.1,-1837.89,600.46,-36.17,19.71,180.07,-336,319,-123,-0.73,0.58,0.11,-0.34,39.92,13.22,-72.23,28.38,walking
88,5226970,-756.1,-2000,539.67,19.2,17.78,28.91,-336,319,-123,-0.74,0.58,0.08,-0.33,37.57,15.5,-71.67,28.54,-353.21,-2000,-174.13,53.45,54.77,-62.13,-442,-109,-391,-0.55,0.7,0.14,-0.43,48.65,27.15,-91.62,28.4,walking
89,5227077,-519.35,-2000,-316.71,-19.33,17.43,-10.65,-442,-109,-391,-0.52,0.72,0.16,-0.42,49.3,26.44,-96.43,28.54,375.43,-2000,724.37,56.33,62.95,-127.04,-442,-109,-391,-0.59,0.67,0.22,-0.39,51.62,16.02,-90.09,28.4,walking
90,5227133,1331.85,-1261.72,1417.85,14.61,80.11,-41.31,-307,-85,-421,-0.64,0.59,0.28,-0.4,57.81,6.42,-81.68,28.52,246.77,-2000,888.06,53.04,-54.2,-81.83,-307,-85,-421,-0.64,0.54,0.31,-0.45,66.33,4.69,-77.31,28.4,walking
91,5227189,379.58,-2000,1023.25,20.15,-39.03,-64.83,-307,-85,-421,-0.63,0.48,0.35,-0.49,74.54,1.64,-73.27,28.54,83.56,-1874.63,980.77,24.26,7.39,-66.59,-307,-85,-421,-0.63,0.44,0.36,-0.53,79.68,0.89,-69.86,28.4,walking
92,5227246,681.82,-2000,1069.52,18.82,-8.45,-73.02,-307,-85,-421,-0.63,0.39,0.4,-0.54,84.35,-4.84,-67.38,28.54,190.31,-2000,803.04,11.6,8.15,-40.51,-229,-51,-421,-0.62,0.37,0.41,-0.55,87.18,-5.53,-67.2,28.38,walking
93,5227302,630.86,-2000,889.95,18.55,-5.23,-87.11,-229,-51,-421,-0.63,0.34,0.44,-0.55,88.97,-10.55,-66.39,28.53,-82.34,-1877.81,771.12,5.07,-27.64,-32.14,-229,-51,-421,-0.61,0.34,0.43,-0.57,91.48,-8.08,-66.61,28.41,walking
94,5227358,420.17,-2000,876.71,21.35,-17.43,-81.86,-229,-51,-421,-0.62,0.32,0.45,-0.57,92.57,-11.2,-65.86,28.55,-158.57,-1933.29,777.47,2.13,-10.37,-28.77,-459,321,-418,-0.64,0.34,0.43,-0.53,86.37,-10.6,-65.79,28.4,walking
95,5227415,318.91,-1918.64,1021.61,26.79,15.82,-93.37,-459,321,-418,-0.69,0.33,0.41,-0.49,79.53,-14.24,-62.83,28.55,-211.85,-1904.72,811.71,-0.4,39.35,-35.89,-459,321,-418,-0.7,0.37,0.38,-0.48,75.16,-10.4,-63.34,28.4,walking
96,5227471,511.84,-1968.44,921.08,1.63,58.28,-85.24,-459,321,-418,-0.73,0.37,0.38,-0.43,69.78,-13.69,-62.72,28.51,-102.05,-2000,704.47,1.4,13.48,-53.01,-449,317,-435,-0.72,0.4,0.36,-0.43,68.35,-10.6,-64.65,28.39,walking
97,5227527,319.21,-2000,848.63,-4.39,-26.84,-72.38,-449,317,-435,-0.73,0.4,0.37,-0.42,67.56,-12.38,-65.26,28.55,-491.15,-2000,517.4,4.6,-28.87,-80.65,-449,317,-435,-0.71,0.43,0.36,-0.43,67.47,-8.21,-67.76,28.38,walking
98,5227584,126.34,-2000,764.95,-13.56,-40.76,-58.4,-449,317,-435,-0.71,0.43,0.36,-0.42,67.2,-9.16,-68.46,28.54,-391.42,-2000,641.05,7.16,-7.16,-117.69,-449,317,-435,-0.71,0.45,0.35,-0.42,65.73,-7.17,-69.05,28.38,walking
99,5227640,-21.97,-2000,1124.27,-32.05,-43.92,-11.28,-354,317,-421,-0.72,0.44,0.34,-0.42,65.24,-6.09,-67.41,28.55,-742.49,-2000,636.78,-7.68,10.6,-160.51,-354,317,-421,-0.72,0.47,0.31,-0.41,62.38,-3.75,-68.52,28.4,walking
100,5227697,-189.15,-2000,588.01,-59.93,7.04,25.32,-354,317,-421,-0.7,0.5,0.3,-0.41,61.8,-0.67,-71.65,28.54,16.54,-2000,945.8,8.86,39.41,-131.6,-354,317,-421,-0.73,0.48,0.3,-0.39,58.71,-3.87,-69.25,28.38,walking
101,5227753,606.69,-2000,1204.59,-49.82,90.53,48.04,-253,-51,-408,-0.7,0.46,0.32,-0.44,66.72,-2.76,-67.95,28.52,781.98,-2000,1380.31,1.34,167.36,-122.37,-253,-51,-408,-0.72,0.41,0.34,-0.45,68.52,-6.84,-64.84,28.4,walking
102,5227809,1298.03,-2000,1006.16,-60.27,94.67,93.18,-253,-51,-408,-0.69,0.39,0.38,-0.47,74.95,-8.79,-66.17,28.54,479.19,-1565.12,1059.02,-45.65,51.95,7.2,-253,-51,-408,-0.68,0.37,0.39,-0.5,79.2,-8.85,-64.54,28.38,walking
103,5227865,985.17,-1868.41,1078.43,-25.68,33.43,119.01,-195,-3,-502,-0.66,0.35,0.41,-0.52,82.83,-10.08,-64.15,28.54,293.33,-1384.95,1403.56,-80.73,42.63,120.99,-195,-3,-502,-0.66,0.34,0.38,-0.55,84.21,-6.61,-61.25,28.37,walking
104,5227921,864.26,-1757.02,1172.49,1.05,68.62,144.32,-195,-3,-502,-0.65,0.33,0.38,-0.57,85.9,-6.69,-59.89,28.52,380.07,-1478.45,1253.3,-121.77,52.25,194.12,-195,-3,-502,-0.63,0.35,0.36,-0.59,87.85,-2.9,-60.59,28.37,walking
105,5227978,814.45,-1665.41,1094.54,7.9,79.87,127.75,-195,-3,-502,-0.64,0.33,0.37,-0.59,88.24,-4.12,-59.33,28.54,392.03,-1495.54,1168.52,-138.05,41.98,249.99,-249,40,-543,-0.61,0.36,0.36,-0.61,89.93,0.55,-61.41,28.4,walking
106,5228035,774.17,-1602.05,839.11,2.74,64.39,105,-249,40,-543,-0.62,0.35,0.37,-0.59,88.73,-2.4,-61.57,28.54,508.54,-1749.02,1000.73,-102.01,-25.74,249.99,-249,40,-543,-0.59,0.37,0.38,-0.61,91.73,0.1,-64.03,28.4,walking
107,5228090,675.96,-1688.66,743.23,35.67,33.07,69.38,-249,40,-543,-0.61,0.35,0.39,-0.59,90.1,-3.44,-63.57,28.53,76.35,-1950.13,628.66,-49.96,-47.68,249.99,-456,317,-813,-0.58,0.41,0.38,-0.59,89.26,2.14,-67.69,28.41,walking
108,5228146,-412.66,-1965.15,631.53,93.49,64.7,22.41,-456,317,-813,-0.61,0.44,0.33,-0.57,82.94,5.55,-66.35,28.52,-1029.42,-1761.29,453.98,11.8,-54.88,87.69,-456,317,-813,-0.58,0.48,0.29,-0.59,81.66,13.01,-68.11,28.4,walking
109,5228203,-439.21,-2000,817.08,22.03,-87.39,26.2,-456,317,-813,-0.59,0.47,0.29,-0.58,81.08,12.17,-66.7,28.52,-55.85,-1756.29,825.87,61.3,69.59,-104.7,-253,338,-819,-0.65,0.46,0.28,-0.54,74.93,7.84,-64.94,28.4,walking
110,5228259,958.5,-2000,856.45,-42.08,48.65,-74.9,-253,338,-819,-0.69,0.44,0.33,-0.48,71.13,-1.99,-66.87,28.54,6.77,-2000,245.3,24.86,153.07,-101.14,-253,338,-819,-0.69,0.47,0.33,-0.43,65.69,-2.48,-70.3,28.39,walking
111,5228315,988.1,-1878.17,1523.62,14.95,74.55,-67.43,-253,338,-819,-0.74,0.42,0.34,-0.4,63.14,-9.32,-64.49,28.53,506.47,-1549.87,1221.44,49.01,49.42,-92.17,-253,338,-819,-0.77,0.37,0.33,-0.39,61.22,-12.62,-59.11,28.4,walking
112,5228371,1067.93,-2000,1089.23,21.4,28.44,-77,-442,317,-988,-0.78,0.34,0.37,-0.38,62.78,-18,-58.7,28.54,-235.23,-2000,944.09,23.15,-76.22,-84.48,-442,317,-988,-0.76,0.35,0.36,-0.42,66.35,-14.79,-59.81,28.39,walking
113,5228429,549.38,-1860.17,1135.38,16.06,-52.15,-86.41,-442,317,-988,-0.76,0.33,0.38,-0.42,68.15,-17.55,-59.04,28.53,156.07,-2000,901.98,20.47,36.48,-50.16,-442,317,-988,-0.75,0.35,0.37,-0.43,68.26,-14.57,-59.9,28.39,walking
114,5228484,576.6,-2000,897.34,16.93,-1.43,-84.09,-375,328,-988,-0.75,0.34,0.39,-0.42,68.31,-16.93,-60.84,28.51,-13.61,-1947.14,815.98,11.32,-11.24,-44.13,-375,328,-988,-0.74,0.36,0.37,-0.43,69.2,-13.72,-62.15,28.4,walking
115,5228540,487.43,-1956.79,880.62,11.85,-2.17,-75.65,-375,328,-988,-0.74,0.36,0.39,-0.42,69.2,-15.42,-62.61,28.51,-118.23,-1913.27,739.32,7.64,-20.2,-40.13,-375,328,-988,-0.72,0.38,0.37,-0.44,70.27,-11.74,-64.1,28.39,walking
116,5228597,426.45,-1971.86,904.66,24.7,-13.33,-77.99,-349,343,-973,-0.73,0.37,0.38,-0.43,69.84,-13.96,-63.56,28.53,-170.9,-1962.16,804.5,6.75,-10.25,-42.76,-349,343,-973,-0.72,0.39,0.37,-0.44,70.04,-10.37,-64.42,28.37,walking
117,5228653,453.98,-1933.04,1031.31,15.88,-6.78,-92.58,-349,343,-973,-0.73,0.37,0.38,-0.43,69.13,-13.37,-63,28.52,-12.21,-1973.33,842.04,3.59,16.32,-50.67,-349,343,-973,-0.73,0.39,0.36,-0.44,68.74,-10.79,-63.74,28.4,walking
118,5228709,551.88,-2000,1109.68,-4.88,4.59,-78.71,-349,343,-973,-0.74,0.37,0.37,-0.42,68.02,-13.68,-62.83,28.54,-372.5,-1986.15,726.93,-0.55,-22.16,-64.06,-456,341,-988,-0.72,0.4,0.36,-0.44,69.42,-9.06,-64.77,28.4,walking
119,5228766,96.07,-2000,712.89,0.97,-41.88,-73.13,-456,341,-988,-0.71,0.4,0.37,-0.44,70.82,-9.55,-66.34,28.53,-373.05,-2000,577.21,2.69,-28.36,-95.79,-456,341,-988,-0.69,0.43,0.37,-0.45,71.39,-7.03,-68.22,28.42,walking
120,5228823,149.29,-2000,1072.2,-22.77,-47.91,-46.76,-456,341,-988,-0.69,0.41,0.37,-0.46,72.48,-7.84,-67.13,28.52,-644.9,-2000,835.63,-6.08,-7.45,-132.75,-422,386,-880,-0.69,0.43,0.35,-0.46,70.24,-4.73,-67.21,28.39,walking
121,5228879,-399.41,-2000,978.82,-34.46,-21.83,17.23,-422,386,-880,-0.68,0.45,0.32,-0.48,70.5,-0.48,-67.33,28.52,-585.14,-2000,108.09,3.06,44.43,-158.51,-422,386,-880,-0.67,0.49,0.32,-0.45,67.36,0.28,-72.07,28.39,walking
122,5228934,297.06,-2000,801.64,-28.21,29.43,36.47,-422,386,-880,-0.68,0.49,0.33,-0.44,67.16,-0.83,-71.76,28.51,218.26,-2000,1116.27,40.81,80.38,-117.47,-165,372,-988,-0.72,0.45,0.32,-0.42,64.41,-4.58,-67.42,28.39,walking
123,5228992,994.69,-2000,891.05,-40.68,88.1,84.88,-165,372,-988,-0.72,0.45,0.34,-0.41,64.1,-7.1,-68.01,28.52,772.95,-1553.71,939.7,21.02,89.35,-65.76,-165,372,-988,-0.75,0.41,0.35,-0.38,61.69,-12.31,-64.59,28.39,walking
124,5229048,1151.98,-2000,912.66,-33.63,9.77,116.87,-165,372,-988,-0.74,0.4,0.37,-0.39,64.34,-13.71,-65.98,28.54,348.14,-1435.49,1013.18,-25.02,25.56,86.69,-165,372,-988,-0.74,0.4,0.35,-0.41,64.63,-10.85,-63.72,28.38,walking
125,5229103,928.04,-1691.65,877.38,3.78,4.94,138.73,-192,321,-968,-0.73,0.39,0.36,-0.42,67.64,-11.76,-63.54,28.54,434.08,-1291.81,1089.78,-44.75,9.74,166.71,-192,321,-968,-0.73,0.38,0.34,-0.45,69.06,-8.65,-61.54,28.39,walking
126,5229179,987.12,-1575.68,935.12,32.83,-20.47,132.83,-192,321,-968,-0.73,0.34,0.37,-0.47,72.93,-12.88,-59.71,28.55,288.27,-1465.15,999.21,-62.28,-83.21,249.99,-402,372,-961,-0.69,0.37,0.36,-0.51,77.11,-6.92,-61.41,28.4,walking
127,5229236,724.3,-1508.3,1023.38,35.26,-32.18,113.33,-402,372,-961,-0.7,0.35,0.36,-0.51,77.24,-8.53,-59.34,28.54,399.54,-1938.29,909.36,-61.25,-87.01,249.99,-402,372,-961,-0.66,0.38,0.36,-0.53,80.64,-4.36,-63.13,28.4,walking
128,5229291,357.73,-1981.93,977.84,55.44,-9.12,86.73,-402,372,-961,-0.67,0.38,0.35,-0.53,78.96,-3.44,-61.76,28.51,2.62,-1912.78,695.01,-45.12,-79.37,249.99,-402,372,-961,-0.63,0.42,0.34,-0.56,81.5,2.39,-65.38,28.39,walking
129,5229347,-857.97,-2000,1088.93,83.65,-31.15,16.89,-463,324,-924,-0.63,0.43,0.28,-0.58,80.17,7.77,-61.79,28.53,-1290.65,-1819.64,203.67,4.94,13.44,57.2,-463,324,-924,-0.6,0.5,0.25,-0.58,77.7,16.04,-66.58,28.41,walking
130,5229406,-388.55,-1939.39,551.7,-4.94,-0.54,17.46,-463,324,-924,-0.6,0.51,0.26,-0.56,75.78,15.03,-68.95,28.52,3.23,-1820.13,748.05,65.39,94.2,-143.51,-463,324,-924,-0.65,0.49,0.27,-0.51,70.62,8.16,-67.58,28.42,walking
131,5229460,901.06,-2000,1238.89,-14.06,52.22,-96.49,-470,331,-988,-0.7,0.44,0.32,-0.46,68.68,-2.9,-65.68,28.57,21.79,-2000,14.89,19.54,81.69,-61.33,-470,331,-988,-0.69,0.47,0.34,-0.44,67.67,-3.01,-71.01,28.4,walking
132,5229517,495,-2000,837.4,29.37,1.58,-72.71,-470,331,-988,-0.7,0.44,0.36,-0.43,68.47,-7.61,-69.22,28.53,355.22,-1670.04,983.7,35.95,26.94,-105.93,-470,331,-988,-0.72,0.4,0.36,-0.42,67.77,-10.7,-65.43,28.4,walking
133,5229574,969.6,-1828.37,1344.42,13.68,14.02,-76.52,-359,319,-983,-0.75,0.35,0.38,-0.41,66.98,-16.75,-61.25,28.53,70.01,-2000,927.25,26.84,-24.28,-73.75,-359,319,-983,-0.74,0.36,0.38,-0.42,68.03,-14.96,-61.45,28.37,walking
134,5229629,650.63,-1959.66,932.31,22.29,-9.35,-80.73,-359,319,-983,-0.75,0.34,0.39,-0.41,68.37,-17.67,-61.45,28.55,24.66,-2000,945.68,20.13,-7.24,-47.94,-359,319,-983,-0.74,0.36,0.38,-0.43,69.02,-14.27,-61.67,28.39,walking
135,5229685,444.03,-2000,1071.59,19.91,-24.46,-78.9,-359,319,-983,-0.74,0.35,0.38,-0.43,69.3,-15.68,-61.04,28.52,-125.67,-1948.97,909.24,13.66,-8.45,-38.54,-334,345,-971,-0.73,0.37,0.36,-0.44,69.33,-11.48,-61.73,28.41,walking
136,5229742,488.53,-1973.63,1014.1,22.77,-13.14,-78.65,-334,345,-971,-0.74,0.36,0.37,-0.43,68.83,-13.97,-61.21,28.52,-300.66,-1928.53,862.67,13.47,-7.13,-37.85,-334,345,-971,-0.7,0.43,0.3,-0.48,69.02,-0.92,-63.62,28.4,walking
137,5229874,648.93,-1973.33,1012.45,13.78,-7.45,-67.77,-241,384,-983,-0.74,0.37,0.37,-0.42,67.14,-13.55,-62.37,28.54,-286.25,-2000,868.96,11.87,-42.08,-60.71,-241,384,-983,-0.72,0.41,0.33,-0.44,67.69,-6.57,-64.11,28.4,walking
138,5229989,90.7,-2000,908.02,5.76,-63.64,-68.73,-470,454,-961,-0.72,0.4,0.36,-0.44,69.28,-9.48,-64.89,28.53,-400.21,-2000,660.83,16,-28.99,-106.51,-470,454,-961,-0.71,0.42,0.35,-0.44,68.62,-7.25,-66.14,28.41,walking
139,5230091,-296.08,-2000,1005,-16.04,-64,0.98,-415,317,-880,-0.66,0.44,0.32,-0.52,75.04,1.57,-65.48,28.52,-889.1,-2000,368.23,23.08,-6.05,-167.28,-415,317,-880,-0.66,0.47,0.31,-0.5,72.51,3.07,-68.26,28.4,walking
140,5230147,260.07,-2000,524.9,-43.34,-14.4,35.95,-415,317,-880,-0.65,0.47,0.34,-0.49,73.1,0.92,-71.51,28.5,408.63,-2000,858.89,77.52,-21.53,-135.37,-415,317,-880,-0.69,0.43,0.36,-0.46,71.8,-6.45,-67.92,28.41,walking
141,5230201,783.26,-2000,1099.85,-52.14,30.01,79.66,-344,345,-846,-0.7,0.42,0.37,-0.45,71,-7.64,-67.56,28.51,1002.32,-1799.74,1136.66,19.79,98.67,-70.1,-344,345,-846,-0.74,0.39,0.37,-0.41,66.9,-12.9,-64.06,28.4,walking
142,5230258,1486.51,-2000,734.13,-43.88,5.42,104.86,-344,345,-846,-0.72,0.38,0.41,-0.4,69.25,-16.29,-67.11,28.53,322.57,-1250.31,910.64,11.65,-46.94,71.9,-344,345,-846,-0.73,0.37,0.39,-0.43,70.55,-13.9,-63.73,28.37,walking
143,5230314,1063.48,-1693.24,828.61,1.35,-47.62,130.11,-253,434,-556,-0.73,0.37,0.4,-0.41,69.17,-16.06,-64.22,28.52,545.72,-1206.85,951.6,-23.84,-40.94,175.56,-253,434,-556,-0.74,0.37,0.37,-0.42,67.88,-13.74,-62.24,28.4,walking
144,5230371,1006.47,-1528.56,896.42,25.13,-39.64,132.38,-253,434,-556,-0.75,0.36,0.38,-0.41,66.83,-15.81,-61.28,28.54,281.92,-1387.15,948.24,-59.17,-65.12,249.99,-253,434,-556,-0.73,0.39,0.35,-0.44,68.03,-9.56,-62.44,28.37,walking
145,5230427,850.59,-1382.39,905.09,16.4,-25.38,138.61,-253,434,-556,-0.75,0.37,0.35,-0.43,66.46,-11.59,-60.75,28.53,436.22,-1937.01,993.47,-74.66,-67.38,249.99,-463,437,-533,-0.71,0.41,0.34,-0.46,69.84,-6.69,-64.11,28.41,walking
146,5230484,576.78,-2000,986.94,31.87,-8.22,84.92,-463,437,-533,-0.72,0.4,0.34,-0.45,68.28,-7.53,-62.92,28.54,189.64,-1858.7,763.92,-91.35,-108.76,249.99,-463,437,-533,-0.69,0.44,0.34,-0.48,71.55,-2.93,-66.88,28.37,walking
147,5230540,-721.19,-1869.87,540.1,55.56,19.78,65.58,-463,437,-533,-0.68,0.48,0.28,-0.48,68.07,4.93,-66.97,28.51,-1150.45,-1686.4,526.86,-24.77,-61.06,140.75,-415,348,-556,-0.63,0.52,0.23,-0.52,69.09,14.95,-68.69,28.41,walking
148,5230596,-795.1,-2000,372.31,-2.33,1.05,26.6,-415,348,-556,-0.63,0.55,0.21,-0.51,66.13,17.19,-71.57,28.51,-158.33,-1603.03,878.42,56.53,112.02,-123.97,-415,348,-556,-0.68,0.52,0.21,-0.46,60.73,11.59,-67.95,28.39,walking
149,5230652,962.46,-2000,1129.46,-35.68,88.53,-66.77,-415,348,-556,-0.73,0.49,0.26,-0.4,57.66,0.99,-67.49,28.53,117.49,-2000,298.77,25.28,162.15,-95.21,-425,317,-489,-0.73,0.52,0.27,-0.36,53.59,-0.77,-70.96,28.4,walking
150,5230709,1266.91,-1818.91,1272.71,16.09,19.1,-52.71,-425,317,-489,-0.76,0.46,0.31,-0.34,54.4,-9.18,-67.25,28.52,535.77,-1609.19,1224.24,46.1,-10.11,-99.98,-425,317,-489,-0.78,0.41,0.32,-0.34,55.6,-12.69,-62.54,28.37,walking
151,5230766,915.16,-2000,990.66,32.54,-45.23,-82.3,-425,317,-489,-0.78,0.38,0.36,-0.34,58.77,-17.45,-62.5,28.53,-128.05,-2000,887.63,26.7,-54.7,-72.88,-425,317,-489,-0.76,0.4,0.35,-0.38,61.72,-13.68,-63.19,28.4,walking
152,5230821,472.53,-1903.87,979.43,22.59,-26.6,-77.71,-392,324,-526,-0.76,0.38,0.36,-0.38,62.63,-15.51,-62.45,28.53,70.62,-2000,974.73,25.51,7.54,-45.19,-392,324,-526,-0.76,0.39,0.35,-0.39,62.94,-12.86,-62.13,28.4,walking
153,5230878,483.7,-2000,1086,21.38,-28.36,-79.44,-392,324,-526,-0.76,0.37,0.36,-0.39,63.33,-14.88,-61.34,28.51,-162.84,-1945.19,856.75,12.85,-24.43,-38.35,-361,444,-502,-0.75,0.43,0.31,-0.4,60.18,-7.12,-63.36,28.41,walking
154,5230967,391.97,-1992.68,911.38,24.72,-19.13,-77.2,-361,444,-502,-0.77,0.42,0.32,-0.37,58.3,-10.46,-62.98,28.52,-282.9,-1961.43,795.65,13.93,-29.37,-42.54,-361,444,-502,-0.76,0.44,0.3,-0.38,58.02,-7.07,-63.94,28.4,walking
155,5231024,194.82,-1923.65,1069.82,23.37,-22.09,-79.96,-361,444,-502,-0.77,0.42,0.3,-0.37,56.59,-9.01,-62.19,28.51,-181.76,-1943.79,815.31,12.3,5.77,-52.69,-253,447,-485,-0.77,0.44,0.28,-0.36,54.54,-6.59,-63.07,28.4,walking
156,5231080,630.68,-1940.92,1037.6,6.16,6.09,-74.26,-253,447,-485,-0.79,0.43,0.3,-0.33,52.35,-11.11,-62.32,28.53,-169.37,-2000,830.69,9.51,-22.63,-63.81,-253,447,-485,-0.77,0.46,0.28,-0.34,51.82,-6.78,-64.37,28.4,walking
157,5231162,201.35,-2000,924.68,6.71,-48.75,-69.08,-253,447,-485,-0.78,0.45,0.29,-0.33,52.1,-8.8,-64.46,28.53,-472.47,-1998.47,685.55,11.44,-35.53,-90.24,-183,463,-484,-0.77,0.47,0.27,-0.34,51.01,-5.58,-66.01,28.39,walking
158,5231218,129.33,-2000,875.98,-10.89,-45.84,-49.51,-183,463,-484,-0.77,0.47,0.28,-0.33,50.88,-6.76,-66.45,28.53,-519.53,-2000,686.83,18.32,-27.51,-131.74,-183,463,-484,-0.77,0.49,0.26,-0.33,49.59,-4.92,-67.08,28.39,walking
159,5231274,-346.92,-2000,955.26,-9.58,-69.48,0.43,-183,463,-484,-0.76,0.49,0.25,-0.35,51.01,-1.8,-66.74,28.52,-831.73,-2000,552.49,15.64,4.41,-169.41,-470,444,-445,-0.75,0.51,0.23,-0.35,49.72,0.6,-68.54,28.4,walking
160,5231331,335.75,-2000,761.96,-46.09,-7,24.03,-470,444,-445,-0.74,0.52,0.25,-0.35,50.93,-1.21,-70.15,28.52,387.51,-2000,767.94,55.85,18.88,-135.01,-470,444,-445,-0.76,0.49,0.28,-0.32,49.6,-6.6,-68.43,28.39,walking
161,5231387,895.94,-2000,1018.74,-57.03,49.88,75.21,-470,444,-445,-0.76,0.49,0.29,-0.31,50.33,-7.95,-68.96,28.53,1023.74,-1743.96,1113.46,12.37,111.38,-66.18,-251,377,-447,-0.79,0.45,0.3,-0.27,47.08,-13.58,-65.07,28.41,walking
162,5231443,1552.55,-2000,725.52,-48.22,-2.53,106.01,-251,377,-447,-0.78,0.45,0.35,-0.28,50.95,-16.51,-68.17,28.51,382.2,-1320.19,979.37,11.47,-53.85,58.44,-251,377,-447,-0.78,0.43,0.33,-0.32,53.38,-14.51,-64.49,28.39,walking
163,5231500,928.89,-1670.84,930.3,-4.07,-50.67,131.13,-251,377,-447,-0.77,0.41,0.35,-0.34,56.66,-14.89,-64.48,28.52,342.96,-1272.58,1103.15,-34.39,-7.84,167.77,-251,377,-447,-0.77,0.41,0.31,-0.37,57.62,-9.99,-61.64,28.38,walking
164,5231556,993.41,-1553.16,992.49,19.98,-12.96,146.87,-432,399,-556,-0.77,0.39,0.33,-0.39,61.15,-11.48,-60.52,28.52,467.47,-1265.56,1059.39,-68.03,-37.94,249.99,-432,399,-556,-0.75,0.39,0.32,-0.43,64.92,-7.44,-60.37,28.4,walking
165,5231613,970.28,-1355.22,1045.17,28.75,-17.99,114.67,-432,399,-556,-0.76,0.36,0.33,-0.43,65.7,-11.38,-57.67,28.54,283.45,-1396.18,1104.98,-80.83,-60.26,249.99,-432,399,-556,-0.73,0.38,0.32,-0.47,69.25,-6.1,-58.99,28.39,walking
166,5231669,570.68,-1744.63,1048.46,32.35,-12.01,84.02,-299,442,-555,-0.75,0.38,0.31,-0.45,66.56,-7.06,-58.09,28.53,219.97,-2000,655.33,-77.57,-117.73,249.99,-299,442,-555,-0.7,0.42,0.32,-0.47,69.73,-3.02,-64.08,28.39,walking
167,5231725,-231.63,-1942.2,153.02,29.85,9.08,84.24,-299,442,-555,-0.68,0.48,0.3,-0.46,66.48,1.65,-69.41,28.52,-981.57,-1625.37,557.25,-34.1,-60.37,162.77,-299,442,-555,-0.65,0.53,0.24,-0.49,66.16,11.75,-70.63,28.4,walking
168,5231782,-1043.82,-2000,274.96,0.27,-18.78,31.3,-456,331,-496,-0.63,0.56,0.22,-0.49,64.18,16.58,-73.49,28.53,-106.75,-1569.4,955.69,49.71,74.73,-107.77,-456,331,-496,-0.69,0.52,0.21,-0.46,60.42,10.75,-68.57,28.39,walking
169,5231838,813.6,-1581.48,1360.35,-44.06,24.73,-54.95,-456,331,-496,-0.73,0.47,0.26,-0.42,59.39,0.57,-64.94,28.53,-696.59,-2000,-126.4,16.78,49.29,-35.84,-456,331,-496,-0.69,0.53,0.25,-0.42,58.25,5.26,-71.8,28.39,walking
170,5231894,-68.3,-2000,370.3,-15.57,49.62,-29.68,-456,331,-496,-0.69,0.55,0.26,-0.4,56.9,4.03,-74.74,28.52,246.95,-1965.09,704.96,39.61,54.05,-122.76,-415,317,-462,-0.72,0.52,0.28,-0.36,54.9,-1.79,-72.57,28.4,walking
171,5231951,1165.34,-1421.81,1551.33,-4.75,120.03,-52.35,-415,317,-462,-0.77,0.46,0.3,-0.33,52.05,-8.99,-65.75,28.54,93.2,-2000,907.35,37.64,-35.49,-84.36,-415,317,-462,-0.76,0.45,0.3,-0.35,55.06,-8.78,-65.24,28.4,walking
172,5232007,610.78,-2000,1053.34,19.29,-1.25,-77.6,-415,317,-462,-0.77,0.42,0.33,-0.35,56.56,-12.17,-64.1,28.55,146.24,-1901.86,894.9,20.59,0.45,-62.91,-361,434,-502,-0.77,0.42,0.32,-0.35,55.89,-11.45,-63.57,28.38,walking
173,5232064,613.34,-2000,997.01,17.07,-36.28,-75.04,-361,434,-502,-0.78,0.41,0.34,-0.34,56.04,-14.84,-63.11,28.52,43.21,-2000,875.37,11.35,-29.95,-41.82,-361,434,-502,-0.77,0.42,0.33,-0.35,56.8,-12.47,-63.8,28.4,walking
174,5232119,510.93,-1931.82,982.12,16.49,-38.74,-81.25,-361,434,-502,-0.78,0.4,0.35,-0.34,56.71,-15.37,-63.09,28.53,-202.33,-1909.67,824.46,10.54,-59.87,-41.5,-361,434,-502,-0.76,0.42,0.33,-0.36,58.06,-11.57,-64.03,28.37,walking
175,5232177,303.89,-1975.95,951.66,24.37,-52.34,-73.53,-304,427,-499,-0.77,0.41,0.34,-0.35,57.66,-13.32,-63.35,28.53,-244.2,-1963.93,825.38,9.54,-15.93,-39.91,-304,427,-499,-0.76,0.43,0.31,-0.36,57.19,-9.46,-64.06,28.38,walking
176,5232233,354.55,-1938.96,1105.77,13.57,7.28,-90.87,-304,427,-499,-0.78,0.42,0.31,-0.34,54.93,-11.68,-62.24,28.54,-126.53,-1921.75,825.01,4.49,11.89,-47.99,-304,427,-499,-0.77,0.44,0.29,-0.35,54.28,-8.67,-63.2,28.4,walking
177,5232289,578,-2000,1030.03,5.13,12.07,-72.65,-224,459,-477,-0.79,0.43,0.31,-0.32,51.28,-12.35,-62.53,28.53,-244.32,-2000,771.61,2.14,-24.62,-61.14,-224,459,-477,-0.78,0.45,0.29,-0.32,50.95,-9.29,-64.11,28.38,walking
178,5232345,101.93,-1986.33,803.22,-0.7,-44.41,-71.93,-224,459,-477,-0.78,0.45,0.3,-0.32,50.96,-9.86,-65.27,28.51,-412.72,-2000,593.08,6.6,-30.9,-87.19,-224,459,-477,-0.77,0.48,0.28,-0.32,50.68,-6.92,-67.2,28.41,walking
179,5232401,309.63,-2000,989.93,-18.17,-48.67,-49.45,-470,488,-442,-0.77,0.47,0.3,-0.32,51.85,-9.02,-66.93,28.53,-393.25,-2000,877.81,3.15,-22.07,-124.34,-470,488,-442,-0.77,0.47,0.28,-0.33,51.42,-7.14,-66.66,28.39,walking
180,5232458,-138.49,-2000,1085.94,-24.96,-37.22,-16.65,-470,488,-442,-0.76,0.47,0.27,-0.35,52.34,-4.96,-66.09,28.51,-890.75,-2000,778.69,-5.68,9.5,-156.97,-470,488,-442,-0.76,0.49,0.24,-0.35,50.36,-1.6,-66.79,28.4,walking
181,5232515,37.41,-2000,292.36,-57.58,14.81,31.56,-470,488,-442,-0.73,0.54,0.26,-0.34,50.59,-0.46,-72.72,28.51,184.08,-2000,745.36,38.89,3.01,-143.23,-359,326,-430,-0.75,0.51,0.28,-0.33,51.1,-5.22,-71.1,28.4,walking
182,5232571,634.58,-2000,1009.16,-51.03,47.53,49.18,-359,326,-430,-0.74,0.5,0.29,-0.33,52.23,-5.77,-70.81,28.52,733.95,-1940.8,1154.48,13.8,135.57,-87.98,-359,326,-430,-0.77,0.47,0.29,-0.3,49.21,-9.67,-67.14,28.4,walking
183,5232627,1457.4,-2000,953.12,-48.07,42.97,86.85,-359,326,-430,-0.76,0.46,0.33,-0.3,52.26,-12.6,-68.59,28.51,388.55,-1505.31,1016.91,-5.56,-1.34,23.27,-224,340,-541,-0.77,0.44,0.32,-0.33,54.2,-11.76,-65.45,28.41,walking
184,5232683,835.75,-1817.5,1104.86,-10.84,-0.74,119.61,-224,340,-541,-0.77,0.43,0.33,-0.35,57,-11.35,-64.31,28.52,334.05,-1398.32,1275.39,-62.95,54.66,129.84,-224,340,-541,-0.77,0.42,0.29,-0.38,57.25,-7.25,-61.59,28.37,walking
185,5232740,966.49,-1737.37,1031.43,13.48,49.94,146.9,-224,340,-541,-0.77,0.41,0.3,-0.39,58.62,-8.07,-60.68,28.52,458.25,-1338.07,1139.16,-91.5,19.56,208.84,-353,456,-555,-0.76,0.42,0.28,-0.41,59.87,-4.62,-60.49,28.39,walking
186,5232796,937.5,-1585.94,1011.6,26.92,34.12,121.29,-353,456,-555,-0.77,0.4,0.29,-0.4,59.43,-7.29,-58.97,28.54,336.3,-1455.44,1050.72,-105.62,-7.93,249.99,-353,456,-555,-0.75,0.43,0.28,-0.43,61.86,-2.53,-60.89,28.39,walking
187,5232853,785.64,-1520.51,858.22,17.56,35.37,96.63,-353,456,-555,-0.76,0.41,0.29,-0.41,60.46,-5.82,-60.22,28.52,617.43,-1928.28,928.34,-90.58,-40.31,249.99,-353,456,-555,-0.73,0.44,0.3,-0.43,63.44,-3.35,-63.94,28.39,walking
188,5232909,320.86,-1871.7,558.23,45.64,-1.56,80.02,-463,341,-526,-0.72,0.44,0.31,-0.44,64.92,-2.95,-65.45,28.52,40.1,-2000,779.05,-35.33,-91.59,248.89,-463,341,-526,-0.68,0.47,0.3,-0.48,69.38,2.45,-67.25,28.4,walking
189,5232965,-1013.06,-2000,1218.2,113.09,-40.34,11.05,-463,341,-526,-0.69,0.45,0.24,-0.51,69.12,7.52,-61.64,28.54,-928.16,-1782.35,462.34,32.85,-23.22,-1.65,-463,341,-526,-0.67,0.49,0.22,-0.51,67.29,12.16,-64.11,28.41,walking
190,5233021,-178.96,-1807.25,966.92,-24.33,-62.84,17.48,-415,-24,-705,-0.64,0.46,0.26,-0.56,76.2,10.36,-63.85,28.51,-74.65,-2000,630.25,50.26,100.04,-120.01,-415,-24,-705,-0.64,0.46,0.29,-0.54,75.87,7.02,-65.46,28.41,walking
191,5233079,-195.62,-2000,-181.7,-47.44,171.49,-45.81,-415,-24,-705,-0.6,0.52,0.32,-0.51,74.14,7.81,-75.64,28.53,223.02,-2000,1184.39,39.08,121.96,-119.08,-415,-24,-705,-0.64,0.48,0.33,-0.5,74.3,2.92,-70.91,28.37,walking
192,5233134,1199.71,-1770.08,839.84,6.68,107.81,-71.41,-439,317,-536,-0.72,0.43,0.36,-0.41,66.12,-9.71,-68.1,28.52,852.66,-1856.51,933.47,50.09,-23.38,-83.79,-439,317,-536,-0.74,0.39,0.38,-0.39,65.82,-15.05,-65.68,28.4,walking
193,5233191,585.02,-2000,1033.08,12.45,-69.75,-74.81,-439,317,-536,-0.74,0.37,0.4,-0.39,67.43,-17.51,-64.84,28.53,-163.39,-1942.2,974.73,17.05,1.32,-65.48,-439,317,-536,-0.74,0.38,0.37,-0.41,67.07,-13.13,-63.81,28.36,walking
194,5233247,706.12,-2000,1073.55,18.57,-12.22,-77.94,-439,317,-536,-0.75,0.36,0.38,-0.4,66.47,-16.49,-62.53,28.51,47.97,-2000,906.62,13.79,-9.96,-43.05,-456,348,-792,-0.74,0.38,0.37,-0.42,67.57,-13.28,-63,28.39,walking
195,5233304,526.43,-1967.47,1094.67,16.38,-12.63,-88.12,-456,348,-792,-0.75,0.36,0.38,-0.41,67.38,-15.44,-61.85,28.51,-158.02,-1930.79,888.85,9.66,-34.84,-37.18,-456,348,-792,-0.73,0.38,0.36,-0.44,68.81,-11.32,-62.67,28.38,walking
196,5233360,356.99,-1993.96,901.73,23.33,-31.07,-79.02,-456,348,-792,-0.73,0.37,0.37,-0.43,69.12,-13.16,-62.84,28.52,-269.17,-1960.75,765.01,8.16,-30.51,-37.5,-361,317,-779,-0.72,0.4,0.36,-0.45,69.93,-8.87,-64.34,28.39,walking
197,5233416,200.38,-1949.4,1035.64,26.95,-19.78,-90.4,-361,317,-779,-0.73,0.38,0.36,-0.44,69.24,-10.32,-62.87,28.51,-277.71,-1922.06,833.74,8.19,3.81,-48.86,-361,317,-779,-0.72,0.41,0.34,-0.45,68.84,-6.61,-63.57,28.39,walking
198,5233490,629.88,-2000,1080.32,1.28,5.97,-71.63,-361,317,-779,-0.74,0.37,0.37,-0.42,67.33,-13.55,-62.4,28.51,-292.85,-2000,858.46,4.59,-21.6,-64.47,-238,322,-548,-0.74,0.4,0.34,-0.42,65.7,-9.73,-63.47,28.39,walking
199,5233545,130.07,-2000,807.5,4.71,-43.58,-73.52,-238,322,-548,-0.74,0.41,0.35,-0.41,64.99,-10.41,-64.63,28.52,-374.21,-2000,567.75,11.07,-39.48,-90.63,-238,322,-548,-0.73,0.43,0.34,-0.41,64.5,-7.82,-66.8,28.38,walking
200,5233602,340.7,-2000,962.4,-22.42,-44.78,-53.79,-238,322,-548,-0.73,0.43,0.35,-0.4,64.27,-10.11,-66.79,28.52,-364.44,-2000,807.56,6.9,-13.74,-122.28,-464,333,-551,-0.73,0.44,0.34,-0.41,64.09,-7.72,-66.88,28.4,walking
201,5233658,-85.39,-2000,1070.62,-25.6,-33.2,-17.15,-464,333,-551,-0.72,0.44,0.33,-0.43,65.25,-5.51,-66.32,28.51,-850.77,-2000,777.89,3.4,-5.19,-156.92,-464,333,-551,-0.72,0.46,0.3,-0.43,63.89,-2.37,-66.75,28.39,walking
202,5233715,-29.36,-2000,194.76,-44.04,-23.28,41.85,-464,333,-551,-0.68,0.5,0.32,-0.43,65.38,-0.61,-72.88,28.52,282.78,-2000,867.68,48.42,9.43,-142.27,-464,333,-551,-0.72,0.46,0.34,-0.4,63.26,-6.46,-69.57,28.4,walking
203,5233770,818.24,-2000,971.8,-50.25,33.64,59.79,-346,367,-501,-0.73,0.46,0.34,-0.38,61.68,-8.82,-69.32,28.51,638.18,-1968.44,1190.61,13.31,133.17,-66.15,-346,367,-501,-0.76,0.44,0.33,-0.35,56.88,-10.91,-65.53,28.37,walking
204,5233827,1502.38,-2000,803.22,-50.49,31.33,101.94,-346,367,-501,-0.75,0.43,0.36,-0.34,58.55,-14.35,-67.9,28.52,480.9,-1338.56,977.29,13.57,-36.86,24.53,-346,367,-501,-0.76,0.4,0.35,-0.36,59.64,-14.56,-64.24,28.38,walking
205,5233884,860.35,-1791.5,995.42,-6.16,-44.94,114.58,-239,27,-550,-0.73,0.37,0.39,-0.43,70.02,-14.55,-64.06,28.54,281.37,-1396.42,1105.77,-31.45,7.49,138.55,-239,27,-550,-0.71,0.36,0.37,-0.48,74.92,-10.08,-61.81,28.4,walking
206,5233940,911.25,-1695.62,976.93,12.36,1.59,151.39,-239,27,-550,-0.69,0.34,0.39,-0.51,80.11,-10.65,-61.32,28.53,451.84,-1352.42,1045.9,-59.5,-29.29,222.54,-239,27,-550,-0.66,0.34,0.38,-0.56,85.04,-6.97,-61.05,28.38,walking
207,5233996,872.92,-1562.19,1027.28,25.2,-14.42,127.54,-415,352,-553,-0.69,0.32,0.38,-0.53,80.82,-10.29,-58.86,28.51,349.79,-1495.48,1024.54,-85.63,-38.5,249.99,-415,352,-553,-0.68,0.35,0.36,-0.54,80.74,-6.3,-60.72,28.39,walking
208,5234054,727.29,-1525.45,1034.06,17.05,3.23,81.52,-415,352,-553,-0.71,0.34,0.36,-0.51,76.72,-9.36,-58.61,28.5,255.98,-1989.32,794.62,-105.83,-38.51,249.99,-415,352,-553,-0.67,0.4,0.36,-0.52,78,-3.99,-64.65,28.4,walking
209,5234110,357.42,-1987.43,588.68,14.57,51.88,87.93,-415,352,-553,-0.68,0.42,0.35,-0.49,73.84,-3.57,-66.47,28.51,148.93,-1982.42,608.95,-63.98,-25.18,235.61,-324,372,-526,-0.65,0.47,0.33,-0.49,73.12,1.34,-70.06,28.39,walking
210,5234167,-1082.03,-2000,817.99,23.64,-0.84,8.58,-324,372,-526,-0.66,0.5,0.27,-0.5,69.45,7.68,-68.78,28.52,-803.59,-1747.07,453.37,27.21,5.17,-31.65,-324,372,-526,-0.66,0.52,0.24,-0.49,65.6,11.11,-69.78,28.39,walking
211,5234222,-394.47,-1824.65,1234.74,-12.94,-46.91,8.42,-324,372,-526,-0.68,0.5,0.23,-0.49,65.44,10.51,-65.74,28.54,-509.09,-2000,202.58,53.67,67.19,-99.66,-422,358,-553,-0.68,0.53,0.23,-0.45,60.25,9.62,-69.76,28.39,walking
212,5234279,188.35,-2000,-228.58,-31.08,21.08,-30.79,-422,358,-553,-0.67,0.56,0.27,-0.4,58.59,5.19,-77.5,28.51,568.6,-1934.57,1119.75,54.66,46.43,-125.18,-422,358,-553,-0.72,0.5,0.3,-0.37,56.39,-3.46,-71.28,28.39,walking
213,5234334,1166.63,-1670.72,1048.71,9.47,17.2,-74.1,-422,358,-553,-0.76,0.45,0.34,-0.33,56.28,-12.56,-67.95,28.52,395.57,-2000,938.9,43.42,-31.68,-80.53,-339,432,-555,-0.77,0.43,0.35,-0.33,56.61,-14.32,-65.81,28.38,walking
214,5234390,460.94,-2000,1032.41,15.85,-35.46,-71.6,-339,432,-555,-0.77,0.41,0.35,-0.33,56.97,-15.65,-64.62,28.51,68.73,-1908.51,838.32,18.11,6.63,-63.96,-339,432,-555,-0.77,0.42,0.34,-0.34,56.6,-13.36,-64.41,28.41,walking
215,5234446,689.33,-2000,1027.65,14.11,-26.43,-74.28,-339,432,-555,-0.78,0.4,0.35,-0.33,56.65,-16.66,-63.54,28.53,-70.86,-2000,914.79,9.03,-25.22,-42.32,-436,468,-799,-0.76,0.42,0.33,-0.37,59.74,-11.36,-64.07,28.37,walking
216,5234512,455.81,-1959.9,1023.13,12.15,-13.83,-87.05,-436,468,-799,-0.76,0.4,0.35,-0.37,60.05,-13.78,-63.17,28.5,-179.08,-1916.08,784.42,5.51,-32.02,-37.97,-436,468,-799,-0.75,0.42,0.34,-0.39,61.58,-10.17,-64.33,28.4,walking
217,5234595,290.1,-1967.35,960.82,22.18,-9.25,-81.89,-436,468,-799,-0.76,0.4,0.35,-0.38,61.13,-13.05,-62.6,28.51,-220.58,-1957.89,798.16,4.1,1.34,-41.34,-415,317,-543,-0.74,0.42,0.33,-0.4,62.48,-8.48,-63.99,28.4,walking
218,5234653,457.95,-1944.34,997.99,7.18,13.86,-100.53,-415,317,-543,-0.75,0.41,0.34,-0.39,61.89,-11.45,-63.36,28.52,-50.29,-1955.38,843.44,0.82,26.66,-47.32,-415,317,-543,-0.74,0.42,0.33,-0.4,62.16,-8.46,-64.17,28.4,walking
219,5234709,589.48,-2000,1062.44,1.98,5.85,-77.84,-415,317,-543,-0.75,0.4,0.34,-0.39,62.1,-11.89,-63.48,28.51,-426.39,-2000,693.97,-1.24,-37.14,-68.41,-436,317,-556,-0.73,0.43,0.33,-0.41,64.06,-7.31,-65.73,28.38,walking
220,5234764,-21.55,-2000,712.46,-2.99,-40.1,-75.88,-436,317,-556,-0.72,0.44,0.34,-0.42,65.18,-7.31,-67.25,28.49,-329.71,-2000,578.92,3.29,-14.4,-100.99,-436,317,-556,-0.71,0.46,0.34,-0.42,65.14,-5.53,-68.89,28.38,walking
221,5234821,355.29,-2000,1063.48,-26.49,-36.7,-45.75,-436,317,-556,-0.72,0.44,0.35,-0.42,65.82,-8.1,-67.78,28.51,-480.71,-2000,861.39,-3.52,-18.42,-126.83,-290,334,-536,-0.72,0.45,0.33,-0.41,63.9,-6.05,-67.41,28.41,walking
222,5234879,-307.86,-2000,1128.66,-31.46,-20.86,-5.46,-290,334,-536,-0.72,0.46,0.31,-0.43,63.67,-2.78,-66.44,28.51,-864.07,-2000,362.49,-3.57,28.69,-161.74,-290,334,-536,-0.71,0.5,0.29,-0.41,60.6,0.19,-69.89,28.36,walking
223,5234934,293.7,-2000,717.47,-38.09,27.83,33.33,-290,334,-536,-0.71,0.5,0.3,-0.4,60.35,-0.94,-71.11,28.49,232.97,-2000,903.38,46.07,39.05,-130.41,-290,334,-536,-0.74,0.47,0.31,-0.38,58.22,-5.33,-68.29,28.37,walking
224,5234991,860.23,-2000,1027.28,-51.57,74.17,70.11,-447,322,-507,-0.74,0.47,0.32,-0.37,58.61,-6.63,-68.5,28.54,881.65,-1707.09,1158.57,12.7,114.85,-72.07,-447,322,-507,-0.77,0.43,0.32,-0.35,56.1,-11.06,-64.87,28.39,walking
225,5235046,1299.38,-2000,924.93,-45.58,25.7,107.64,-447,322,-507,-0.75,0.43,0.35,-0.36,59.67,-12.52,-66.9,28.51,386.66,-1449.77,1124.02,-11.09,9.4,46.57,-447,322,-507,-0.75,0.41,0.33,-0.39,61.05,-10.58,-63.61,28.39,walking
226,5235104,855.04,-1803.96,1095.03,1.83,11.63,131.55,-253,317,-850,-0.75,0.39,0.34,-0.41,64.65,-10.54,-62.31,28.53,331.6,-1360.9,1255.68,-58.04,42.72,144.49,-253,317,-850,-0.74,0.39,0.31,-0.44,65.78,-6.89,-60.07,28.38,walking
227,5235160,948.18,-1754.33,1079.35,20.25,39.84,151.39,-253,317,-850,-0.74,0.38,0.32,-0.45,67.75,-7.75,-59.13,28.53,495,-1406.86,1134.52,-80.41,-1.23,227.39,-253,317,-850,-0.72,0.38,0.32,-0.48,70.71,-4.63,-59.54,28.39,walking
228,5235217,835.21,-1572.51,1000.12,28.07,40.8,121.28,-464,319,-875,-0.72,0.36,0.33,-0.49,71.91,-6.69,-58.2,28.54,340.27,-1475.28,958.07,-101.56,3.02,249.99,-464,319,-875,-0.69,0.39,0.32,-0.52,75.08,-2.23,-60.8,28.39,walking
229,5235272,756.47,-1573.85,759.64,13.05,54.48,94.71,-464,319,-875,-0.7,0.38,0.34,-0.5,74.29,-4.97,-61.31,28.51,410.1,-2000,782.96,-95.03,-11.41,249.99,-464,319,-875,-0.66,0.42,0.34,-0.52,77.19,-0.82,-65.95,28.38,walking
230,5235328,206.12,-2000,621.28,34.81,57.44,65.25,-464,319,-875,-0.66,0.44,0.33,-0.51,75.05,0.1,-66.88,28.53,-111.63,-2000,701.48,-52.36,-22.38,226.01,-468,336,-821,-0.63,0.48,0.32,-0.53,76.65,6.44,-69.4,28.38,walking
231,5235385,-982.24,-2000,860.17,39.1,16,3.4,-468,336,-821,-0.63,0.49,0.27,-0.54,74.53,11.28,-67.73,28.53,-595.03,-1747.5,656.68,31.02,39.03,-30.19,-468,336,-821,-0.63,0.5,0.25,-0.53,71.68,12.65,-67.57,28.39,walking
232,5235441,157.9,-1675.48,1031.8,-18.88,-50.37,7.73,-468,336,-821,-0.66,0.46,0.28,-0.53,72.97,7.27,-65.2,28.52,-181.76,-2000,703.06,54.63,64.35,-101.32,-432,321,-954,-0.68,0.46,0.28,-0.5,69.97,4.76,-65.5,28.39,walking
233,5235497,-302.8,-2000,27.59,-8.63,86.88,-43.39,-432,321,-954,-0.65,0.51,0.29,-0.47,67.62,5.6,-72.37,28.52,191.83,-2000,612.79,46.23,108.22,-112.3,-432,321,-954,-0.68,0.5,0.31,-0.44,65.1,0.8,-71.61,28.38,walking
234,5235553,1293.95,-1757.2,1088.26,13.31,54.49,-72.18,-432,321,-954,-0.72,0.43,0.36,-0.4,64.76,-9.69,-68.19,28.5,520.32,-1575.74,1367.98,49.92,-11.39,-82.22,-432,321,-954,-0.75,0.37,0.36,-0.41,65.64,-13.29,-61.54,28.39,walking
235,5235610,624.69,-2000,967.9,22.69,0.56,-64.58,-361,-34,-988,-0.73,0.34,0.4,-0.44,71.89,-16.76,-61.33,28.53,-122.62,-1960.33,841.31,16.08,-0.79,-66.55,-361,-34,-988,-0.71,0.34,0.39,-0.47,75.7,-13.87,-61.92,28.38,walking
236,5235665,661.5,-1975.71,932.92,25.47,-36.23,-74.4,-361,-34,-988,-0.7,0.31,0.43,-0.48,79.71,-17.55,-61.99,28.52,80.51,-2000,854.31,13.64,8.51,-39.72,-361,-34,-988,-0.68,0.32,0.42,-0.51,82.05,-14.47,-62.73,28.39,walking
237,5235723,570.62,-1996.4,908.08,16.3,-20.01,-79.36,-361,317,-900,-0.7,0.32,0.42,-0.47,78.44,-16.85,-62.88,28.51,-17.88,-1941.41,830.93,6.16,-38.06,-38.33,-361,317,-900,-0.7,0.35,0.41,-0.48,77.34,-13.8,-63.94,28.41,walking
238,5235779,452.76,-1980.41,937.01,17.76,-35.16,-76.78,-361,317,-900,-0.71,0.34,0.41,-0.46,75.62,-15.66,-63.59,28.52,-226.07,-1982.85,806.52,9.44,-34.34,-34.27,-361,317,-900,-0.7,0.37,0.39,-0.47,75.23,-11.24,-64.67,28.4,walking
239,5235835,327.33,-1954.65,986.27,29,-21.14,-86.33,-293,317,-988,-0.71,0.36,0.39,-0.46,73.44,-12.98,-63.21,28.52,-333.44,-1930.66,786.5,5.62,-5.32,-37.51,-293,317,-988,-0.7,0.39,0.36,-0.47,72.75,-8.33,-64.26,28.38,walking
240,5235892,339.23,-1970.52,957.89,10.28,19.52,-83.49,-293,317,-988,-0.72,0.38,0.37,-0.45,70.85,-10.38,-63.66,28.5,-144.65,-2000,818.3,4.26,13.54,-56.67,-293,317,-988,-0.71,0.4,0.35,-0.45,70.18,-7.83,-64.49,28.4,walking
241,5235948,453.31,-2000,1012.45,-4.25,-9.84,-73.9,-293,317,-988,-0.72,0.39,0.37,-0.44,69.93,-11.01,-64.12,28.52,-432.13,-2000,630.8,3.07,-31.23,-77.68,-470,352,-988,-0.7,0.42,0.36,-0.46,70.85,-7.17,-66.33,28.4,walking
242,5236004,172.55,-2000,734.62,-5.48,-36.85,-68.92,-470,352,-988,-0.7,0.41,0.37,-0.45,71.67,-8.59,-67.5,28.52,-267.94,-2000,665.89,5.75,-9.57,-104.84,-470,352,-988,-0.69,0.43,0.37,-0.45,71.31,-7.05,-68.34,28.39,walking
243,5236061,265.44,-2000,1067.5,-26.52,-33.4,-31.74,-470,352,-988,-0.7,0.41,0.37,-0.46,72.1,-8.15,-67.32,28.53,-486.45,-2000,794.86,0.18,-19,-132.45,-466,348,-880,-0.69,0.43,0.36,-0.46,71.05,-6.02,-67.48,28.4,walking
244,5236118,-356.38,-2000,967.29,-41.14,-33.39,13.75,-466,348,-880,-0.68,0.44,0.34,-0.48,71.98,-2.05,-67.8,28.5,-762.39,-2000,190,-2.07,28.65,-157.26,-466,348,-880,-0.66,0.49,0.33,-0.46,69.39,0.2,-72.15,28.38,walking
245,5236174,132.63,-1992.13,894.84,-44.04,24,39.57,-466,348,-880,-0.67,0.48,0.33,-0.46,69.43,0.5,-71.61,28.52,118.41,-2000,1113.59,22.39,66.63,-114.45,-305,329,-865,-0.7,0.46,0.32,-0.44,66.77,-2.93,-67.89,28.4,walking
246,5236230,911.99,-2000,1119.2,-57.63,97.62,75.29,-305,329,-865,-0.71,0.45,0.33,-0.43,65.9,-5.16,-67.54,28.52,833.31,-1603.27,1166.44,-26.1,111.48,-61.6,-305,329,-865,-0.74,0.41,0.34,-0.4,63.09,-10.32,-64.43,28.38,walking
247,5236286,1184.88,-1995.24,1016.42,-58.11,51.72,101.47,-305,329,-865,-0.74,0.41,0.36,-0.4,64.83,-12.04,-65.7,28.52,292.97,-1482.73,1389.4,-50.81,44.11,48.82,-305,329,-865,-0.75,0.39,0.33,-0.42,64.68,-9.31,-61.61,28.37,walking
248,5236343,740.23,-1828.55,1280.82,-6.58,65.43,124.66,-251,-43,-919,-0.73,0.36,0.35,-0.47,71.37,-9.54,-59.55,28.51,271.06,-1456.67,1303.59,-96.31,60.42,120.19,-251,-43,-919,-0.71,0.36,0.34,-0.51,75.49,-6.91,-58.85,28.4,walking
249,5236399,936.04,-1871.34,1165.95,0.98,80.63,155.92,-251,-43,-919,-0.69,0.34,0.36,-0.53,79.81,-7.58,-58.51,28.51,510.8,-1464.23,1346.92,-121.13,26.54,208.56,-251,-43,-919,-0.66,0.34,0.36,-0.57,84.31,-5.05,-59,28.38,walking
250,5236456,871.15,-1663.88,1047.85,12.86,77.66,113.74,-251,-43,-919,-0.66,0.32,0.37,-0.57,85.97,-7,-58.28,28.51,380.13,-1598.08,1049.93,-134.21,35.11,249.99,-429,-89,-958,-0.61,0.35,0.37,-0.6,90.68,-2.03,-61.71,28.37,walking
251,5236512,838.75,-1753.72,650.39,-2.44,84.44,97.64,-429,-89,-958,-0.61,0.35,0.4,-0.59,91.2,-4.64,-63.8,28.51,412.48,-1810.55,804.81,-109.27,41.53,249.99,-429,-89,-958,-0.57,0.38,0.41,-0.61,94.01,-0.06,-67.41,28.37,walking
252,5236568,146.55,-1862.24,593.93,42.58,130.63,55.69,-429,-89,-958,-0.58,0.4,0.39,-0.6,91.43,1.68,-67.61,28.51,-136.41,-1958.01,741.64,-52.47,25.77,226.97,-442,222,-954,-0.55,0.45,0.36,-0.6,89.36,8.14,-69.68,28.39,walking
253,5236624,-655.82,-2000,706.79,45.85,33.76,13.01,-442,222,-954,-0.57,0.47,0.32,-0.6,85.32,11.27,-68.76,28.54,-618.47,-1752.08,673.83,28.32,14.76,16.81,-442,222,-954,-0.57,0.48,0.29,-0.59,83.08,13.7,-68.11,28.4,walking
254,5236681,-151.55,-1992.68,1030.33,4.91,-66.3,16.73,-442,222,-954,-0.59,0.46,0.3,-0.59,83.89,10.66,-65.99,28.5,-299.68,-2000,263.12,51.93,84.75,-81.4,-427,148,-986,-0.6,0.48,0.31,-0.55,79.32,8.87,-69.83,28.39,walking
255,5236737,-113.34,-2000,-370.79,-48.32,142.59,-32.68,-427,148,-986,-0.58,0.54,0.35,-0.5,74.94,7.68,-79.83,28.49,104.31,-2000,956.24,60.52,55.36,-124.11,-427,148,-986,-0.63,0.49,0.35,-0.49,74.51,1.94,-74.33,28.39,walking
256,5236792,1103.39,-1762.57,1346.68,4.23,26.94,-68.25,-427,148,-986,-0.68,0.41,0.39,-0.47,74.99,-7.96,-68.84,28.49,518.74,-1842.96,951.17,47.65,-15.46,-65.12,-427,148,-986,-0.69,0.37,0.4,-0.47,76.57,-11.49,-65.87,28.4,walking
257,5236850,312.62,-2000,814.21,14.11,-43.93,-61.18,-470,133,-975,-0.68,0.36,0.42,-0.48,79.19,-12.57,-66.16,28.51,-453.49,-1958.68,817.5,14.84,14.48,-63.78,-470,133,-975,-0.67,0.38,0.39,-0.51,79.39,-7.63,-65.89,28.38,walking
258,5236906,607.79,-1924.32,1018.8,8.74,90.77,-60.46,-470,133,-975,-0.69,0.37,0.39,-0.49,77.24,-10.35,-64.14,28.49,284.55,-2000,881.71,16.97,22.9,-45.83,-470,133,-975,-0.69,0.36,0.39,-0.49,77.85,-10.37,-64.05,28.39,walking
259,5236961,586.85,-1986.33,910.58,1.97,32.3,-73.98,-449,102,-985,-0.69,0.35,0.41,-0.48,78.08,-13.49,-64.06,28.52,8.18,-1960.14,760.44,3.02,-0.21,-34.79,-449,102,-985,-0.68,0.36,0.4,-0.5,79.63,-10.89,-65.12,28.4,walking
260,5237018,605.29,-1991.7,779.3,6.69,16.88,-79.03,-449,102,-985,-0.68,0.35,0.42,-0.48,79.89,-14.05,-65.66,28.49,-34.3,-1992.92,695.8,0.52,-14.69,-22.9,-449,102,-985,-0.66,0.37,0.42,-0.5,81.68,-10.67,-67.08,28.38,walking
261,5237074,288.33,-1960.57,982.36,19.17,-10.54,-76.85,-415,105,-819,-0.67,0.35,0.42,-0.5,81.67,-11.93,-65.26,28.48,-402.34,-1904.36,833.25,-5.27,11.54,-24.33,-415,105,-819,-0.66,0.38,0.39,-0.52,81.79,-6.56,-65.61,28.4,walking
262,5237131,304.26,-1936.52,977.66,14.18,58.59,-85.68,-415,105,-819,-0.68,0.37,0.39,-0.51,79.66,-8.52,-64.15,28.49,-203.74,-1998.47,676.76,-5.81,24.65,-42.8,-415,105,-819,-0.66,0.39,0.38,-0.52,79.9,-5.56,-66.05,28.39,walking
263,5237187,466.06,-2000,862.24,-6.81,29.22,-68.89,-415,105,-819,-0.67,0.38,0.4,-0.5,79.48,-8.9,-66.29,28.49,-261.41,-1993.41,621.64,-9.33,11.57,-56.79,-387,100,-983,-0.65,0.4,0.39,-0.51,80.14,-5.86,-68.19,28.39,walking
264,5237244,197.69,-2000,787.05,-21.5,-6.03,-64.86,-387,100,-983,-0.65,0.4,0.41,-0.51,80.93,-7.44,-68.84,28.51,-418.52,-1913.88,463.32,-6.07,1.75,-80.11,-387,100,-983,-0.63,0.42,0.4,-0.51,81.34,-4.33,-70.89,28.39,walking
265,5237299,290.71,-2000,950.07,-32.56,-7.74,-40.08,-387,100,-983,-0.64,0.4,0.41,-0.51,82.08,-6.43,-70.02,28.49,-181.09,-2000,865.91,-6.29,18.85,-109.01,-361,102,-975,-0.65,0.4,0.4,-0.51,81.15,-5.99,-69.06,28.38,walking
266,5237356,-36.87,-2000,1152.71,-48.04,-13.24,-4.48,-361,102,-975,-0.64,0.4,0.39,-0.53,82.16,-4.33,-67.9,28.49,-639.95,-2000,672.85,-26.96,29.32,-145.8,-361,102,-975,-0.63,0.42,0.38,-0.52,80.59,-2.12,-69.41,28.37,walking
267,5237413,-1.46,-2000,567.57,-64.31,10.88,14.68,-361,102,-975,-0.61,0.44,0.39,-0.52,81.64,-0.98,-72.65,28.48,-240.05,-2000,803.77,-19.46,21.7,-122.73,-444,213,-787,-0.64,0.44,0.38,-0.5,78.57,-2.32,-71.77,28.37,walking
268,5237469,476.81,-2000,1161.68,-66.93,122.33,49.96,-444,213,-787,-0.66,0.45,0.36,-0.49,75.27,-2.55,-70.25,28.51,512.39,-1947.2,1360.11,-32.63,198.84,-91.8,-444,213,-787,-0.7,0.43,0.34,-0.45,69.39,-5.47,-66.65,28.38,walking
269,5237525,1151.73,-2000,1212.16,-65.57,135.77,82.96,-444,213,-787,-0.71,0.42,0.35,-0.44,68.8,-7.38,-66.31,28.5,371.95,-1633.91,1196.04,-64.58,107.52,-38.17,-444,213,-787,-0.72,0.41,0.34,-0.44,67.62,-7.72,-64.4,28.39,walking
270,5237582,849.3,-1949.52,1321.17,-39.22,96.14,114.36,-388,-120,-975,-0.7,0.38,0.36,-0.49,74.35,-7.7,-62.85,28.5,213.87,-1489.69,1583.25,-118.48,114.04,70.02,-388,-120,-975,-0.69,0.37,0.34,-0.52,77.27,-4.95,-60.58,28.4,walking
271,5237639,958.5,-1914.73,1271.24,-7.4,120.18,138.24,-388,-120,-975,-0.67,0.35,0.35,-0.55,81.34,-5.57,-59.54,28.49,416.87,-1463.93,1413.51,-135.35,74.91,165.07,-388,-120,-975,-0.65,0.35,0.35,-0.58,85.26,-2.94,-59.58,28.38,walking
272,5237695,871.58,-1790.04,1117.74,7.91,109.76,136.47,-459,-58,-985,-0.64,0.34,0.36,-0.59,86.8,-3.73,-58.85,28.5,372.25,-1600.34,1273.62,-146.76,45.42,238.11,-459,-58,-985,-0.61,0.36,0.36,-0.61,90.1,0.07,-60.71,28.38,walking
273,5237752,750.61,-1738.95,947.57,6.97,105.29,109.83,-459,-58,-985,-0.62,0.35,0.37,-0.6,89.9,-1.66,-60.71,28.52,442.14,-1772.46,1070.5,-136.86,65.63,249.99,-459,-58,-985,-0.58,0.38,0.37,-0.62,92.43,2.32,-63.98,28.39,walking
274,5237807,743.47,-1731.87,642.21,21.45,127.3,89.61,-395,-202,-867,-0.58,0.37,0.39,-0.61,93.04,-0.63,-65.01,28.51,272.22,-1944.34,707.21,-78.28,53.6,249.99,-395,-202,-867,-0.54,0.4,0.4,-0.63,96.78,4.17,-68.3,28.4,walking
275,5237865,164.12,-1911.25,600.46,63.27,110.63,58.13,-395,-202,-867,-0.54,0.4,0.39,-0.63,95.81,4.47,-67.85,28.51,-182.74,-1881.35,840.27,2.91,-44.04,162.63,-395,-202,-867,-0.5,0.4,0.38,-0.66,100.16,8.3,-66.91,28.38,walking
276,5237921,-558.17,-2000,958.19,67.98,-73.97,26.51,-197,-337,-771,-0.47,0.37,0.38,-0.7,106.82,9.54,-63.73,28.52,-397.89,-1771.48,731.57,54.15,26.39,-24.41,-197,-337,-771,-0.46,0.37,0.38,-0.71,107.83,9.61,-63.54,28.39,walking
277,5237977,239.93,-1810.06,1049.07,15.24,-13.53,-11.79,-197,-337,-771,-0.48,0.32,0.4,-0.71,110.14,4.27,-62.28,28.5,-86.36,-2000,529.91,44.88,136.83,-78.33,-197,-337,-771,-0.49,0.34,0.41,-0.69,106.7,3.4,-64.92,28.38,walking
278,5238034,-657.41,-2000,-256.77,-40.18,219.89,-38.89,-197,-337,-771,-0.46,0.43,0.43,-0.64,101.57,8.47,-75.43,28.5,63.66,-2000,808.11,51.97,103.3,-106.27,-219,-294,-772,-0.5,0.4,0.44,-0.63,100.44,3.41,-72.28,28.38,walking
279,5238090,1222.66,-1723.39,984.13,5.55,20.76,-67.25,-219,-294,-772,-0.55,0.32,0.48,-0.61,101.87,-7.4,-69.85,28.51,474.55,-1709.84,1059.51,46.26,-49.86,-76.58,-219,-294,-772,-0.56,0.26,0.48,-0.62,104.02,-11.84,-65.75,28.39,walking
280,5238148,489.38,-2000,889.89,18.2,-39.1,-66.06,-219,-294,-772,-0.56,0.24,0.49,-0.62,105.65,-14.68,-65.45,28.52,-303.59,-1891.11,825.81,16.35,29.91,-64.22,-253,-338,-772,-0.55,0.27,0.47,-0.64,105.58,-9.82,-65,28.39,walking
281,5238204,658.69,-1957.34,843.02,19.15,58.04,-60.95,-253,-338,-772,-0.56,0.25,0.48,-0.63,105.09,-12.92,-64.66,28.51,214.48,-2000,858.22,21.17,17.63,-44.18,-253,-338,-772,-0.55,0.25,0.48,-0.64,105.85,-12.1,-64.55,28.39,walking
282,5238260,549.07,-2000,988.83,13.69,-4.55,-66.54,-253,-338,-772,-0.56,0.23,0.49,-0.63,106.59,-14.78,-63.85,28.49,0.79,-1981.57,844.36,7.71,-19.42,-40.04,-348,-338,-765,-0.54,0.24,0.48,-0.65,108.02,-12.11,-64.55,28.4,walking
283,5238317,586.73,-1994.32,854.74,10.12,-11.87,-73.15,-348,-338,-765,-0.55,0.22,0.5,-0.64,108.53,-14.97,-64.82,28.51,-94.6,-1947.2,757.32,3.15,-31.58,-28.81,-348,-338,-765,-0.52,0.24,0.49,-0.65,110,-11.32,-66,28.4,walking
284,5238373,310.06,-1938.9,928.71,18.62,-23.45,-70.03,-348,-338,-765,-0.53,0.23,0.49,-0.65,110.21,-12.57,-64.99,28.5,-292.11,-1893.86,794.49,0.37,-3.44,-31.15,-348,-338,-765,-0.51,0.26,0.48,-0.67,110.39,-7.77,-65.62,28.38,walking
285,5238430,373.84,-1937.26,1105.29,12.39,35.61,-84.49,-415,-277,-752,-0.54,0.25,0.47,-0.65,107.43,-10.23,-63.26,28.49,-140.62,-1953,834.35,-3.17,40.92,-38.72,-415,-277,-752,-0.53,0.28,0.45,-0.66,106.32,-6.98,-64.1,28.37,walking
286,5238487,520.26,-2000,968.08,-5.61,29.88,-69.38,-415,-277,-752,-0.55,0.26,0.47,-0.64,105.21,-10.19,-64.08,28.49,-278.5,-2000,699.22,-6.52,-9.82,-57.92,-415,-277,-752,-0.53,0.29,0.46,-0.65,105.85,-7.05,-65.99,28.39,walking
287,5238544,180.79,-2000,667.54,-12.77,-19.8,-67.64,-410,-268,-771,-0.53,0.29,0.48,-0.64,106.36,-8.53,-68.06,28.5,-329.47,-1985.41,559.14,-1.31,-8.93,-83.06,-410,-268,-771,-0.52,0.31,0.48,-0.64,106.4,-6.11,-69.63,28.4,walking
288,5238601,367.13,-2000,985.53,-20.38,-33.17,-40.07,-410,-268,-771,-0.52,0.29,0.49,-0.64,107.17,-8.4,-68.63,28.47,-359.31,-2000,869.87,-6.31,-7.03,-109.39,-410,-268,-771,-0.52,0.3,0.47,-0.64,106.41,-6.4,-68.08,28.37,walking
289,5238657,-113.77,-2000,985.72,-44.08,-1.82,4.99,-461,-166,-757,-0.52,0.32,0.46,-0.65,105.02,-3.61,-68.2,28.5,-585.08,-2000,612.92,-15.69,18.23,-146.31,-461,-166,-757,-0.52,0.35,0.45,-0.63,102.35,-2.23,-69.73,28.38,walking
290,5238714,135.44,-2000,924.74,-58.46,-20.63,16.63,-461,-166,-757,-0.52,0.35,0.46,-0.63,102.77,-2.41,-70.15,28.51,2.56,-2000,613.34,-1.98,59.06,-114.2,-461,-166,-757,-0.54,0.35,0.46,-0.61,99.85,-4.23,-70.84,28.37,walking
291,5238771,602.66,-2000,1082.64,-57.24,111.43,48.69,-461,-166,-757,-0.56,0.35,0.45,-0.6,97.65,-4.77,-69.68,28.49,689.15,-1857.54,1245.91,-18.1,182.33,-101.75,-415,-113,-745,-0.62,0.33,0.43,-0.57,91.19,-9.17,-65.61,28.36,walking
292,5238827,1307.01,-2000,1078.13,-67.09,90.2,80.38,-415,-113,-745,-0.62,0.32,0.45,-0.56,91.68,-11.69,-66.32,28.51,305.24,-1564.76,1186.95,-41.53,44.27,-10.07,-415,-113,-745,-0.63,0.31,0.43,-0.57,91.63,-10.64,-63.49,28.38,walking
293,5238884,762.27,-1908.26,1310.49,-28.33,51.02,110.66,-415,-113,-745,-0.62,0.3,0.42,-0.59,93.18,-9.32,-62.11,28.5,267.46,-1464.6,1474.3,-102.55,92.09,96.24,-358,-222,-529,-0.6,0.31,0.4,-0.63,96.13,-4.97,-59.86,28.39,walking
294,5238940,912.23,-1859.19,1225.4,-3.65,106.45,137.22,-358,-222,-529,-0.58,0.29,0.4,-0.65,99.19,-4.79,-59,28.51,400.27,-1450.44,1339.48,-126.63,62.28,168.62,-358,-222,-529,-0.55,0.3,0.39,-0.67,102.41,-1.9,-59.3,28.4,walking
295,5238997,830.44,-1738.28,1090.52,11.28,99.5,121.43,-358,-222,-529,-0.55,0.28,0.4,-0.68,103.83,-3.1,-58.52,28.5,327.09,-1599.98,1149.6,-143.46,40.95,245.38,-253,-277,-435,-0.49,0.3,0.41,-0.71,110.26,1.46,-61.29,28.39,walking
296,5239055,820.98,-1703.8,745.48,-1.84,113.69,104.29,-253,-277,-435,-0.49,0.29,0.43,-0.7,111.29,-1.17,-62.65,28.53,496.52,-1739.2,908.57,-119.33,31.94,249.99,-253,-277,-435,-0.44,0.3,0.45,-0.72,115.74,1.93,-65.77,28.39,walking
297,5239111,711.49,-1772.89,631.35,28.42,98.75,66.89,-253,-277,-435,-0.46,0.29,0.47,-0.7,114.82,-1.39,-66.22,28.52,110.23,-1957.4,801.39,-68.67,37.54,249.99,-253,-277,-435,-0.41,0.32,0.46,-0.72,117.68,4.93,-68.5,28.38,walking
298,5239167,-38.57,-1982.54,559.33,64.19,107.79,26.34,-405,-325,-87,-0.39,0.33,0.44,-0.74,118.64,8.59,-66.15,28.49,-434.27,-1779.85,593.81,-4.05,-17.34,122.47,-405,-325,-87,-0.34,0.35,0.42,-0.76,122.69,14.44,-65.71,28.39,walking
299,5239224,-501.46,-2000,985.41,34.64,-59.43,23.19,-405,-325,-87,-0.32,0.33,0.41,-0.79,126.2,14.99,-62.7,28.52,-337.22,-1793.58,837.52,48.57,64.9,-65.94,-405,-325,-87,-0.35,0.33,0.41,-0.78,124.28,13.3,-62.17,28.39,walking
300,5239280,587.4,-1754.94,1062.26,-7.84,54.76,-35.1,-353,-309,-123,-0.39,0.28,0.43,-0.77,123.8,5.23,-61.34,28.5,-364.99,-2000,-228.82,19.82,79.61,-39.09,-353,-309,-123,-0.36,0.32,0.47,-0.74,122.85,7.75,-68.39,28.39,walking
301,5239337,192.08,-1994.63,694.7,9.29,10.71,-39.05,-353,-309,-123,-0.37,0.29,0.48,-0.75,124.64,4.68,-67.56,28.49,318.48,-1817.2,879.94,38.54,70.73,-102.01,-353,-309,-123,-0.39,0.26,0.47,-0.75,124.28,0.7,-64.71,28.37,walking
302,5239392,1006.35,-1626.04,1210.75,9.31,59.9,-49.32,-449,-297,-118,-0.44,0.19,0.47,-0.74,123.53,-7.11,-60.35,28.48,38.94,-2000,753.78,39.54,-68.03,-74.87,-449,-297,-118,-0.42,0.18,0.47,-0.75,126.61,-6.96,-60.76,28.36,walking
303,5239450,262.82,-1934.94,944.27,19.54,-12.13,-66.56,-449,-297,-118,-0.41,0.17,0.48,-0.76,127.99,-7.87,-60.2,28.5,103.09,-1902.4,935.61,24.92,49.62,-53.76,-449,-297,-118,-0.41,0.18,0.47,-0.77,127.79,-6.31,-59.56,28.37,walking
304,5239506,723.57,-2000,1032.96,14.36,15.4,-67.92,-449,-297,-118,-0.42,0.15,0.48,-0.76,127.98,-10.38,-59.25,28.49,120.3,-1979.49,842.04,13.44,-4.97,-39.67,-470,-270,-84,-0.4,0.16,0.48,-0.76,129.47,-8.56,-60.19,28.38,walking
305,5239562,597.53,-2000,969.18,13.94,2.12,-80.69,-470,-270,-84,-0.41,0.13,0.49,-0.76,129.64,-11.67,-60.08,28.48,-88.38,-1933.35,792.97,3.97,-20.36,-25.99,-470,-270,-84,-0.39,0.15,0.49,-0.77,131.51,-8.14,-61.33,28.4,walking
306,5239619,394.96,-1994.32,866.21,21.42,-13.99,-75,-470,-270,-84,-0.39,0.14,0.5,-0.76,131.99,-10.35,-61.58,28.48,-247.56,-1903.87,747.07,1.1,-19.49,-29.72,-293,-335,-98,-0.34,0.15,0.5,-0.78,136.25,-5.64,-62.32,28.38,walking
307,5239676,185.12,-1927.31,1087.1,15.7,-0.42,-84.96,-293,-335,-98,-0.34,0.13,0.49,-0.79,137.75,-6.8,-60.34,28.49,-250.98,-1957.76,783.57,0.33,30.55,-40.86,-293,-335,-98,-0.32,0.16,0.49,-0.8,138.81,-3.34,-61.56,28.36,walking
308,5239731,574.46,-1988.46,987.92,-4.83,57.5,-76.96,-293,-335,-98,-0.34,0.13,0.5,-0.79,138.22,-7.23,-61.42,28.5,-61.4,-2000,767.4,-6.9,28.13,-51.28,-361,-328,-91,-0.33,0.15,0.5,-0.79,138.51,-5.19,-62.95,28.36,walking
309,5239830,198.24,-2000,693.66,-27.5,-8.07,-64.43,-361,-328,-91,-0.31,0.13,0.55,-0.76,141.07,-8.25,-68.68,28.49,-198.49,-2000,686.34,0.36,14.35,-97.39,-361,-328,-91,-0.3,0.14,0.54,-0.77,141.46,-6.24,-68.26,28.38,walking
310,5239886,320.68,-2000,1085.14,-27.24,-26.28,-23.14,-375,-294,-125,-0.31,0.13,0.54,-0.77,141.83,-7.63,-67.1,28.47,-470.28,-2000,817.02,-6.37,-18.72,-127.14,-375,-294,-125,-0.3,0.15,0.54,-0.77,140.99,-5.7,-67.34,28.39,walking
311,5239944,-318.48,-2000,964.72,-44.46,-29.5,7.34,-375,-294,-125,-0.28,0.17,0.53,-0.78,141.8,-1.88,-67.82,28.5,-782.78,-2000,415.34,-10.25,19.75,-153.53,-375,-294,-125,-0.28,0.21,0.54,-0.76,139.35,0.37,-71.01,28.37,walking
312,5240000,62.99,-2000,996.77,-42.97,41.19,29.58,-431,-227,-76,-0.29,0.21,0.54,-0.76,138.16,0.79,-70.3,28.5,9.4,-2000,1206.3,7.08,131.13,-122.43,-431,-227,-76,-0.33,0.21,0.51,-0.76,133.7,-1.44,-67.34,28.38,walking
313,5240056,976.68,-2000,1148.25,-59.42,134.09,66.76,-431,-227,-76,-0.37,0.2,0.51,-0.75,130.96,-4.11,-66.86,28.5,883.48,-1643.62,1175.48,-26.76,149.77,-76.72,-431,-227,-76,-0.42,0.18,0.5,-0.74,126.67,-9.15,-63.45,28.36,walking
314,5240113,1274.23,-2000,958.13,-54.52,73.53,101.49,-431,-227,-76,-0.42,0.17,0.51,-0.74,127.83,-10.33,-64.18,28.5,279.11,-1481.75,1096.07,-44.4,26.31,27.89,-470,-92,-6,-0.42,0.17,0.49,-0.74,127.06,-8.83,-62.38,28.38,walking
315,5240169,863.46,-1898.19,1060.36,-12.2,45.34,128.45,-470,-92,-6,-0.41,0.17,0.49,-0.75,127.38,-8.85,-62.56,28.49,484.07,-1409.12,1281.01,-77.32,40.4,140.9,-470,-92,-6,-0.41,0.18,0.48,-0.76,127.42,-6.62,-60.99,28.4,walking
316,5240226,997.25,-1762.88,1026.73,10.2,43.92,146.01,-470,-92,-6,-0.41,0.17,0.48,-0.75,127.78,-8.55,-61,28.5,493.1,-1385.38,1135.62,-87.94,-14.45,224.18,-197,-217,106,-0.33,0.15,0.44,-0.82,137.35,-2.37,-54.84,28.38,walking
317,5240283,847.72,-1544.98,1010.5,21,39.14,114,-197,-217,106,-0.3,0.11,0.41,-0.85,143.12,-3.21,-50.18,28.48,367.31,-1460.08,1011.78,-108.85,8.47,249.99,-197,-217,106,-0.22,0.12,0.42,-0.87,150.98,1.38,-51.3,28.36,walking
318,5240339,799.8,-1575.32,785.4,15.72,52.76,84.34,-197,-217,106,-0.21,0.09,0.43,-0.87,153.68,-1.9,-51.58,28.5,299.01,-1981.81,817.75,-100.42,-5.95,249.99,-197,-217,106,-0.14,0.1,0.46,-0.87,160.47,2.43,-56.45,28.37,walking
319,5240395,224.73,-2000,529.6,40.6,77.59,65.24,-348,-229,124,-0.15,0.11,0.5,-0.85,159.06,2.65,-61.28,28.5,-260.62,-1949.77,756.84,-48.15,-29.69,217.59,-348,-229,124,-0.09,0.14,0.51,-0.84,162.62,8.44,-63.61,28.37,walking
320,5240452,-1085.51,-2000,613.4,27.76,-15.29,8.63,-348,-229,124,-0.06,0.18,0.51,-0.84,162.95,13.98,-64.9,28.49,-458.8,-1689.64,750.37,42.18,15.84,-53.65,-348,-229,124,-0.07,0.18,0.51,-0.84,161.96,12.89,-64.1,28.38,walking
321,5240508,176.45,-1904.97,1084.23,-5.62,-44.67,-3.92,-249,-208,-98,-0.15,0.14,0.53,-0.82,157.21,4.01,-66.96,28.5,-761.35,-2000,13.37,36.2,38.11,-55.92,-249,-208,-98,-0.17,0.19,0.57,-0.78,151.8,5.76,-73.49,28.38,walking
322,5240564,-458.86,-2000,32.41,-56.38,45.1,-32.59,-249,-208,-98,-0.18,0.22,0.61,-0.74,147.55,6.08,-81.24,28.48,374.51,-1967.29,1021.06,42.08,76.16,-125.4,-249,-208,-98,-0.25,0.18,0.59,-0.75,144.72,-1.65,-75.81,28.38,walking
323,5240620,1336.98,-1553.47,1176.76,3.31,178.14,-57.27,-295,-173,-65,-0.35,0.12,0.56,-0.74,138,-11.99,-69.67,28.49,415.41,-2000,743.35,44.71,-59.44,-74.44,-295,-173,-65,-0.35,0.1,0.56,-0.75,139.58,-13.66,-68.11,28.37,walking
324,5240677,191.22,-2000,1085.69,17.26,-50.52,-74.13,-295,-173,-65,-0.34,0.09,0.54,-0.76,140.29,-13.37,-65.38,28.5,-105.22,-1828.37,932.25,19.91,37.44,-60.16,-295,-173,-65,-0.34,0.12,0.52,-0.77,138.64,-9.97,-63.78,28.37,walking
325,5240734,723.88,-2000,1051.21,20.17,0.13,-69.29,-295,-173,-65,-0.37,0.09,0.52,-0.77,137.52,-14.18,-62.65,28.49,115.36,-2000,844.73,13.61,-9,-42.54,-358,-195,-47,-0.35,0.1,0.52,-0.77,138.19,-11.88,-63.02,28.37,walking
326,5240790,560.06,-1985.17,980.77,15.17,-0.21,-85.94,-358,-195,-47,-0.37,0.09,0.52,-0.77,137.57,-14.35,-62.27,28.49,-66.1,-1951.54,820.62,8.03,-25.51,-32.79,-358,-195,-47,-0.35,0.11,0.52,-0.78,138.77,-10.65,-63.11,28.37,walking
327,5240853,412.05,-1976.44,897.4,22.05,-26.66,-76.12,-358,-195,-47,-0.36,0.09,0.52,-0.77,138.89,-13.31,-62.91,28.51,-229.61,-1936.52,770.81,6.06,-27.77,-32.54,-470,-222,-98,-0.34,0.12,0.52,-0.77,138.91,-9.46,-64.74,28.4,walking
328,5240911,241.03,-1889.53,1118.16,20.45,-14.54,-85.8,-470,-222,-98,-0.36,0.11,0.51,-0.77,137.24,-11.43,-62.89,28.49,-241.58,-1931.64,829.71,4.64,16.49,-39.06,-470,-222,-98,-0.35,0.15,0.51,-0.77,136.08,-7.66,-63.99,28.37,walking
329,5240967,578.31,-1992.49,1016.6,4.65,27.82,-72.2,-470,-222,-98,-0.38,0.13,0.52,-0.76,133.8,-11.57,-63.65,28.49,-181.21,-2000,811.34,-1.06,-5.96,-53.12,-439,-202,-91,-0.37,0.15,0.52,-0.76,133.59,-8.49,-64.74,28.38,walking
330,5241025,247.99,-2000,845.95,-5.62,-30.17,-68.31,-439,-202,-91,-0.37,0.15,0.52,-0.75,133.6,-10.06,-65.58,28.51,-459.53,-1974.24,603.58,2.6,-37.21,-79.33,-439,-202,-91,-0.35,0.18,0.53,-0.75,134.11,-6.29,-67.46,28.37,walking
331,5241080,385.01,-2000,949.4,-15.67,-46.92,-59.91,-439,-202,-91,-0.36,0.15,0.54,-0.75,134.59,-9.54,-67.22,28.51,-267.33,-2000,796.51,-1.28,-5.94,-105.85,-422,-198,-104,-0.36,0.17,0.53,-0.75,133.59,-7.72,-67.42,28.38,walking
332,5241138,249.33,-2000,1089.9,-27.07,-28.93,-33.55,-422,-198,-104,-0.37,0.16,0.53,-0.75,133.74,-8.52,-66.55,28.48,-523.25,-2000,728.58,-4.15,-19.2,-129.3,-422,-198,-104,-0.36,0.18,0.53,-0.75,132.87,-6.08,-67.51,28.37,walking
333,5241193,-425.42,-2000,958.98,-29.76,-45.79,27.6,-422,-198,-104,-0.33,0.21,0.52,-0.76,134.24,-0.93,-67.73,28.49,-640.69,-2000,108.83,-0.62,34.1,-159.54,-422,-198,-104,-0.34,0.25,0.54,-0.73,130.98,-0.28,-73.2,28.38,walking
334,5241250,221.92,-2000,1022.16,-41.48,56.2,33.67,-229,-174,-121,-0.34,0.24,0.53,-0.74,130.27,-0.11,-71.11,28.5,236.39,-2000,1148.99,22.95,123.63,-120.8,-229,-174,-121,-0.39,0.23,0.5,-0.74,126.51,-3.34,-67.27,28.4,walking
335,5241308,1062.56,-2000,928.41,-55.47,97.14,81.06,-229,-174,-121,-0.4,0.22,0.52,-0.73,126.1,-5.87,-67.74,28.49,860.29,-1533.02,1056.95,15.88,62.83,-66.2,-229,-174,-121,-0.44,0.17,0.5,-0.73,124.91,-11.43,-63.47,28.37,walking
336,5241364,1096.13,-1929.87,992.25,-29.82,14.07,108.31,-161,-120,-125,-0.43,0.15,0.51,-0.72,126.45,-12.82,-64.36,28.48,277.65,-1476.07,1124.76,-36.94,42.42,82.6,-161,-120,-125,-0.43,0.17,0.49,-0.74,125.94,-9.43,-62.35,28.36,walking
337,5241421,928.28,-1780.46,1000.85,4.62,33.27,138.41,-161,-120,-125,-0.42,0.16,0.49,-0.74,126.85,-9.76,-61.92,28.5,438.78,-1375.98,1186.16,-65.41,27.62,160.07,-161,-120,-125,-0.41,0.18,0.47,-0.76,127.39,-6.75,-60.64,28.37,walking
338,5241478,1004.7,-1650.27,1023.07,29.41,27.21,140.95,-470,-24,-108,-0.44,0.15,0.49,-0.74,125.24,-12.39,-60.87,28.5,468.99,-1404.36,1078.55,-85.57,-28.32,249.99,-470,-24,-108,-0.42,0.17,0.5,-0.74,126.62,-9.81,-62.81,28.37,walking
339,5241535,868.65,-1456.79,952.45,21.27,32.86,100.71,-470,-24,-108,-0.46,0.14,0.5,-0.72,124.29,-14.38,-61.99,28.5,243.47,-1519.71,895.2,-94.43,-13.56,249.99,-470,-24,-108,-0.42,0.19,0.51,-0.73,125.87,-8.7,-65.59,28.37,walking
340,5241591,550.17,-1933.29,712.1,35.41,45.72,91.14,-470,-24,-108,-0.44,0.19,0.52,-0.71,123.82,-10.14,-66.97,28.5,105.96,-2000,649.17,-60.75,-70.92,249.99,-319,11,-123,-0.4,0.24,0.54,-0.7,125.34,-5.82,-72.32,28.38,walking
341,5241648,-133.79,-1641.24,502.01,71.39,33.76,61.37,-319,11,-123,-0.42,0.25,0.53,-0.69,122.02,-4.99,-71.89,28.49,-676.27,-1840.58,788.39,-7.17,-136.87,152.56,-319,11,-123,-0.38,0.28,0.52,-0.71,123.73,0.29,-72.35,28.38,walking
342,5241703,-887.63,-2000,509.16,47.16,-130.78,29.17,-319,11,-123,-0.37,0.29,0.52,-0.71,123.64,1.49,-73.23,28.48,-362.3,-1550.84,656.37,52.09,18.43,-89.73,-361,-7,-37,-0.41,0.28,0.51,-0.71,121.1,-0.96,-71.04,28.38,walking
343,5241767,454.83,-1740.23,1438.54,-32.65,-0.56,-36.5,-361,-7,-37,-0.47,0.22,0.5,-0.69,118.62,-9.43,-66.27,28.48,-854.06,-2000,-80.2,12.46,126.81,-41.39,-361,-7,-37,-0.44,0.31,0.51,-0.67,114.94,-2.28,-72.6,28.39,walking
344,5241823,-111.33,-2000,430.85,-19.5,113.28,-47.29,-361,-7,-37,-0.46,0.33,0.51,-0.64,110.62,-2.77,-75.03,28.5,538.27,-1947.94,712.34,30.08,81.01,-116.42,-375,-116,-23,-0.5,0.3,0.5,-0.64,108.84,-6.13,-70.78,28.4,walking
345,5241880,1204.83,-1424.87,1336.36,20.58,-7.35,-61.43,-375,-116,-23,-0.54,0.22,0.47,-0.66,109.48,-12.36,-62.66,28.5,200.13,-2000,988.59,36.32,-87.27,-81.5,-375,-116,-23,-0.51,0.21,0.46,-0.69,113.16,-10.71,-60.43,28.38,walking
346,5241937,297.97,-1967.1,935.49,20.87,-33.49,-81.13,-375,-116,-23,-0.5,0.2,0.46,-0.7,115.11,-10.29,-59.65,28.48,129.21,-1873.66,800.6,23.22,33.9,-52.26,-402,98,-30,-0.53,0.2,0.47,-0.67,111.01,-13.66,-61.32,28.4,walking
347,5241993,727.05,-2000,1004.09,14.72,-42.82,-74.04,-402,98,-30,-0.56,0.17,0.5,-0.63,109.33,-20.48,-61.98,28.48,-105.59,-1991.21,992.37,16.26,-50.39,-43.07,-402,98,-30,-0.55,0.19,0.49,-0.64,109.39,-17.48,-62.59,28.36,walking
348,5242049,417.6,-1941.83,1044.86,20.45,-18.37,-74.97,-402,98,-30,-0.57,0.18,0.5,-0.63,107.62,-19.76,-61.97,28.5,-179.99,-1942.2,791.63,10.15,-30.51,-35.64,-402,98,-30,-0.56,0.22,0.49,-0.63,107.66,-15.84,-63.83,28.38,walking
349,5242106,363.77,-1940.8,957.64,29.7,-19.8,-73.75,-461,73,-42,-0.57,0.21,0.49,-0.63,106.53,-17.35,-63.03,28.47,-216.74,-1920.53,895.39,10.55,-12.34,-35.06,-461,73,-42,-0.56,0.24,0.48,-0.64,106.16,-13.09,-63.45,28.35,walking
350,5242162,451.23,-1928.71,1085.45,18.26,-10.64,-87.85,-461,73,-42,-0.58,0.22,0.48,-0.62,104.12,-16.61,-62.11,28.49,-50.54,-1970.83,846.19,7.11,1.31,-43.12,-461,73,-42,-0.57,0.24,0.47,-0.63,103.53,-13.58,-63.16,28.37,walking
351,5242218,529.72,-2000,1085.82,6.76,-19.49,-72.27,-470,57,-121,-0.59,0.23,0.48,-0.61,101.87,-16.87,-62.52,28.48,-438.23,-1996.58,758.36,8.89,-40.76,-59.81,-470,57,-121,-0.57,0.27,0.47,-0.62,102.2,-11.81,-64.32,28.38,walking
352,5242275,41.26,-2000,800.6,13.82,-64.66,-62.71,-470,57,-121,-0.57,0.27,0.47,-0.61,102.39,-12.37,-65.4,28.48,-526.61,-2000,646.12,16.72,-54.02,-92.86,-470,57,-121,-0.56,0.29,0.47,-0.62,102.23,-9.39,-66.98,28.38,walking
353,5242331,216.8,-2000,1107.12,-15.53,-50.03,-36.83,-439,54,-121,-0.57,0.28,0.47,-0.61,101.63,-11.46,-65.98,28.51,-270.2,-2000,897.09,16.48,-28.73,-129.01,-439,54,-121,-0.58,0.28,0.46,-0.61,100.07,-11.12,-65.5,28.39,walking
354,5242388,-34.36,-2000,1097.05,-16.76,-67.06,-8.56,-439,54,-121,-0.57,0.29,0.46,-0.62,100.69,-9.76,-65.18,28.5,-808.04,-2000,541.2,13.18,-12.74,-158.1,-439,54,-121,-0.57,0.32,0.45,-0.61,98.44,-7,-67.3,28.37,walking
355,5242445,193.6,-2000,111.76,-47.04,-0.5,29.4,-439,54,-121,-0.55,0.36,0.49,-0.58,98.43,-7.44,-74.29,28.5,408.26,-2000,744.14,68.96,-48.39,-144.39,-280,57,-47,-0.59,0.3,0.5,-0.56,97.23,-14.72,-71.11,28.37,walking
356,5242500,801.82,-2000,984.74,-44.94,-10.79,64.39,-280,57,-47,-0.59,0.3,0.5,-0.56,97.4,-15.01,-70.63,28.48,991.33,-1949.46,1198.24,41.45,85.01,-77.22,-280,57,-47,-0.63,0.27,0.48,-0.54,93.26,-18.83,-65.58,28.38,walking
357,5242557,1535.58,-2000,660.03,-33.45,-20.44,100.6,-280,57,-47,-0.62,0.26,0.51,-0.53,96.23,-20.81,-68.83,28.49,407.78,-1325.44,803.53,39.79,-49.36,57.25,-354,-106,-44,-0.58,0.25,0.46,-0.62,102.09,-13.06,-62.33,28.4,walking
358,5242614,1019.78,-1755.8,786.44,9.83,-68.07,123.36,-354,-106,-44,-0.54,0.23,0.47,-0.66,108.79,-11.48,-61.84,28.49,484.56,-1268.92,986.63,4.26,-31.89,163.76,-354,-106,-44,-0.5,0.22,0.44,-0.71,113.52,-7.13,-58.35,28.37,walking
359,5242669,987.24,-1544.49,835.08,38.48,-58.43,141.44,-354,-106,-44,-0.48,0.18,0.45,-0.73,118.42,-9.66,-57.95,28.49,327.64,-1358.52,813.96,-2.56,-68.4,233.2,-354,-106,-44,-0.43,0.2,0.45,-0.76,123.93,-5.23,-58.57,28.36,walking
360,5242726,849.24,-1480.29,1040.89,51.79,-64.36,130.2,-388,-65,-54,-0.44,0.15,0.46,-0.76,125.85,-10.68,-57.36,28.5,331.73,-1389.28,877.75,-43.53,-68.38,249.99,-388,-65,-54,-0.4,0.16,0.48,-0.77,129.57,-7.55,-60.11,28.4,walking
361,5242783,611.02,-1445.01,1043.76,49.77,-31.44,90.93,-388,-65,-54,-0.41,0.13,0.48,-0.77,129.63,-10.99,-58.5,28.5,261.17,-2000,837.22,-63.1,-109.29,249.99,-388,-65,-54,-0.36,0.16,0.51,-0.76,134.47,-7.21,-64.55,28.38,walking
362,5242840,90.76,-2000,945.31,54.12,-30.14,65.06,-278,-104,-123,-0.36,0.17,0.51,-0.76,133.25,-6.05,-64.46,28.5,-291.32,-1660.46,351.75,-52.06,-89.76,212.88,-278,-104,-123,-0.31,0.22,0.54,-0.75,135.46,0.4,-70.91,28.38,walking
363,5242896,-1883.73,-2000,390.69,12.7,4.29,24.12,-278,-104,-123,-0.27,0.3,0.52,-0.75,132.54,9.64,-74.28,28.5,-671.33,-1655.15,497.5,37.21,16.38,-77.23,-278,-104,-123,-0.31,0.31,0.52,-0.73,128.67,8.1,-74.74,28.37,walking
364,5242953,-18.98,-1623.9,1214.48,-26.69,-14.05,-4.62,-458,-183,109,-0.32,0.28,0.48,-0.77,130.84,6.98,-66.82,28.48,-463.2,-2000,1081.36,30.05,121.51,-70.05,-458,-183,109,-0.34,0.29,0.45,-0.78,127.79,8.66,-64.07,28.37,walking
365,5243009,65.19,-2000,-170.04,-45.46,147.37,-22.91,-458,-183,109,-0.35,0.34,0.5,-0.72,122.62,7.51,-74.11,28.49,528.38,-2000,851.01,41.76,84.86,-118.22,-458,-183,109,-0.41,0.29,0.49,-0.72,120.44,0.81,-68.93,28.38,walking
366,5243066,1447.81,-1648.86,812.19,3.36,6.77,-75.53,-458,-183,109,-0.46,0.21,0.5,-0.71,120.62,-9.43,-64.95,28.51,494.63,-1731.38,1248.54,43.05,-60.74,-84.45,-334,-99,-108,-0.48,0.16,0.49,-0.71,120.56,-13.35,-61,28.38,walking
367,5243122,570.8,-2000,920.9,15.94,29.09,-72.36,-334,-99,-108,-0.49,0.16,0.49,-0.7,119.09,-15.07,-61.32,28.49,-3.17,-1854.06,867.43,14.47,8.6,-54.05,-334,-99,-108,-0.48,0.18,0.48,-0.71,118.91,-11.85,-61.52,28.36,walking
368,5243179,628.05,-1981.14,993.71,16.61,-27.02,-70.24,-334,-99,-108,-0.49,0.16,0.49,-0.7,118.95,-15.11,-61.44,28.48,-70.19,-2000,970.09,13.6,-38.63,-40.34,-361,-106,-125,-0.47,0.18,0.49,-0.71,119.95,-11.66,-61.8,28.38,walking
369,5243235,430.91,-1940.67,1111.57,15.01,-27.72,-78.98,-361,-106,-125,-0.49,0.17,0.49,-0.71,119.38,-13.8,-60.92,28.49,-155.15,-1921.02,880.07,9.49,-38.57,-36.4,-361,-106,-125,-0.47,0.19,0.48,-0.72,120.23,-10.19,-62.01,28.38,walking
370,5243292,395.81,-1966.55,977.42,23.32,-43.5,-68.13,-361,-106,-125,-0.48,0.17,0.49,-0.71,120.19,-12.8,-61.95,28.48,-309.75,-1973.08,899.54,10.99,-33.7,-35.95,-466,-120,104,-0.44,0.2,0.46,-0.74,122.31,-5.81,-60.13,28.37,walking
371,5243349,286.19,-1926.51,1144.84,21.7,-22.79,-84.82,-466,-120,104,-0.45,0.19,0.45,-0.75,122.44,-7.19,-57.93,28.48,-214.36,-1945.07,841.31,9.12,-6.65,-44.46,-466,-120,104,-0.43,0.21,0.44,-0.76,123.04,-3.41,-58.88,28.37,walking
372,5243405,568.73,-1979.98,1053.83,11.22,-16.43,-63.78,-466,-120,104,-0.44,0.18,0.46,-0.75,123.06,-7.33,-58.66,28.48,-66.65,-2000,921.08,6.54,-24.86,-55.76,-466,-120,104,-0.43,0.2,0.45,-0.76,123.89,-5.16,-59.05,28.37,walking
373,5243462,380.07,-2000,1016.97,6.36,-46.64,-71.54,-397,-104,92,-0.43,0.18,0.46,-0.75,124.82,-7.74,-58.96,28.48,-461.06,-1993.9,724.49,10.38,-52.89,-75.18,-397,-104,92,-0.41,0.2,0.46,-0.76,126.12,-3.7,-60.33,28.39,walking
374,5243517,85.69,-2000,986.51,3.89,-71.54,-70.47,-397,-104,92,-0.4,0.19,0.47,-0.76,127.54,-5.1,-60.38,28.51,-494.08,-2000,772.95,10.28,-34.21,-110.17,-397,-104,92,-0.39,0.21,0.47,-0.77,127.6,-2.5,-61.33,28.38,walking
375,5243573,75.01,-2000,1031.98,-23.77,-47.9,-23.19,-424,-114,-8,-0.39,0.2,0.48,-0.76,128.08,-4.37,-63.05,28.48,-710.51,-2000,675.9,9.48,-28.11,-145.98,-424,-114,-8,-0.39,0.22,0.49,-0.75,126.99,-2.57,-64.91,28.38,walking
376,5243631,-418.58,-2000,482.36,-17.88,-50.38,49.02,-424,-114,-8,-0.35,0.26,0.5,-0.75,128.82,1.92,-68.94,28.47,-73.3,-2000,85.63,48.96,-16.72,-162.53,-424,-114,-8,-0.37,0.25,0.54,-0.71,127.25,-2.81,-73,28.38,walking
377,5243687,855.41,-2000,878.91,-44.59,-54.32,40.73,-441,-111,-82,-0.39,0.21,0.56,-0.7,128.7,-8.29,-73.07,28.48,415.95,-2000,1151.37,64.08,26,-78.25,-441,-111,-82,-0.42,0.18,0.53,-0.72,126.94,-10.58,-67.82,28.36,walking
378,5243743,1116.46,-2000,766.6,-35.62,-12.02,99.57,-441,-111,-82,-0.41,0.16,0.55,-0.71,128.45,-12.94,-69.52,28.47,796.02,-1274.96,925.84,52.72,-3.36,-31.81,-441,-111,-82,-0.45,0.12,0.53,-0.71,127.34,-17.6,-63.98,28.37,walking
379,5243801,1049.62,-1813.78,886.78,-8.2,-73.58,106.94,-441,-111,-82,-0.43,0.1,0.54,-0.72,130.9,-18.35,-65.05,28.46,244.87,-1410.16,907.65,10.47,-7.17,121.8,-464,-80,-22,-0.39,0.13,0.51,-0.75,132.24,-12.01,-62.72,28.36,walking
380,5243857,923.28,-1688.05,924.68,21.08,-30.51,146.7,-464,-80,-22,-0.39,0.11,0.52,-0.76,134.21,-13.22,-62.93,28.49,421.33,-1309.02,1038.33,-18.92,-18.22,190.25,-464,-80,-22,-0.36,0.13,0.5,-0.78,135.85,-9.75,-61.65,28.37,walking
381,5243912,963.68,-1574.22,969.67,48.07,-32.19,133.54,-464,-80,-22,-0.37,0.09,0.51,-0.77,137.1,-13.27,-61.17,28.49,444.89,-1433.53,1030.33,-30.06,-75.68,249.99,-358,-102,-57,-0.33,0.11,0.51,-0.79,140.72,-9.37,-62.27,28.39,walking
382,5243969,680.11,-1512.51,986.15,43.36,-44.04,96.88,-358,-102,-57,-0.34,0.08,0.51,-0.79,140.92,-12.33,-61.6,28.48,220.46,-1760.13,898.86,-54.81,-86.09,249.99,-358,-102,-57,-0.29,0.12,0.53,-0.79,144.41,-7.39,-65.84,28.37,walking
383,5244027,423.58,-1938.6,942.32,51.36,-10.29,76.9,-358,-102,-57,-0.3,0.11,0.53,-0.78,143.51,-8.49,-65.91,28.5,50.23,-2000,669.19,-48.39,-99.97,249.99,-341,-338,-125,-0.22,0.14,0.55,-0.79,149.41,-1.21,-69.18,28.36,walking
384,5244082,-642.03,-2000,930.24,71.52,-70.49,-1.11,-341,-338,-125,-0.2,0.16,0.52,-0.81,150.53,2.7,-66.49,28.49,-1355.77,-1834.66,285.71,-26.49,-17.76,101.9,-341,-338,-125,-0.15,0.24,0.54,-0.79,149.99,13,-71.77,28.37,walking
385,5244140,-782.9,-2000,547.12,-20.42,36.74,7.89,-341,-338,-125,-0.15,0.27,0.55,-0.78,147,14.92,-74.74,28.49,-116.82,-1784,990.11,50.71,142.14,-139.96,-341,-338,-125,-0.22,0.25,0.53,-0.78,141.99,8.6,-71.36,28.37,walking
386,5244197,548.16,-2000,1013.49,-39.13,131.05,-71.94,-251,-282,-113,-0.29,0.22,0.54,-0.76,137.88,1.14,-70.58,28.49,173.89,-2000,605.71,33.38,133.29,-118.1,-251,-282,-113,-0.32,0.21,0.53,-0.75,135.01,-1.61,-69.67,28.37,walking
387,5244253,1513.85,-1623.05,1361.51,-10.54,42.17,-44.41,-251,-282,-113,-0.37,0.13,0.52,-0.76,135.39,-11.22,-64.58,28.49,544.86,-1671.63,1277.28,47.6,-62.78,-92.96,-251,-282,-113,-0.37,0.07,0.5,-0.78,137.65,-14.82,-59.51,28.38,walking
388,5244310,632.08,-2000,1144.65,17.18,-55.79,-80.05,-346,-227,-119,-0.39,0.05,0.51,-0.77,137.41,-18.06,-59.48,28.48,-170.72,-1912.6,900.21,12.42,4.37,-67.41,-346,-227,-119,-0.37,0.09,0.5,-0.77,136.53,-13.7,-60.45,28.38,walking
389,5244366,748.35,-2000,1026.37,15.74,-13.62,-77.54,-346,-227,-119,-0.39,0.07,0.51,-0.76,135.66,-17.37,-60.59,28.47,99.79,-2000,940.31,13.73,-17.77,-45.34,-346,-227,-119,-0.38,0.09,0.51,-0.77,136.03,-14.64,-61.3,28.38,walking
390,5244424,507.81,-1969.73,1157.41,14.12,-21.01,-86.67,-464,-214,-123,-0.4,0.08,0.51,-0.76,134.34,-17.05,-60.54,28.48,-169.92,-1953.37,873.41,7.35,-23.55,-34.36,-464,-214,-123,-0.38,0.11,0.51,-0.76,134.49,-12.8,-62.03,28.37,walking
391,5244480,440.31,-1991.09,964.48,20.88,-18.73,-74.99,-464,-214,-123,-0.4,0.1,0.51,-0.75,133.51,-14.89,-62.21,28.48,-208.86,-1950.56,831.48,9.23,-33.26,-33.69,-464,-214,-123,-0.38,0.13,0.51,-0.76,134.04,-10.7,-63.5,28.37,walking
392,5244538,242.43,-1929.2,1068.3,28.16,-28.01,-78.72,-464,-214,-123,-0.39,0.12,0.51,-0.76,133.16,-12.06,-62.2,28.46,-311.65,-1945.8,849.06,6.89,-6.74,-44.19,-412,-174,-125,-0.38,0.16,0.5,-0.76,132.02,-8.04,-63.69,28.36,walking
393,5244594,528.63,-1951.9,1000.18,10.31,-1.73,-77.28,-412,-174,-125,-0.41,0.14,0.51,-0.74,130.16,-12.08,-63.51,28.5,-46.26,-2000,859.5,4.63,-9,-54.82,-412,-174,-125,-0.4,0.16,0.51,-0.74,129.66,-10.09,-64.31,28.35,walking
394,5244650,440,-2000,1022.58,-1.11,-39.49,-68.14,-412,-174,-125,-0.41,0.14,0.52,-0.74,129.51,-12.86,-64.12,28.47,-464.48,-2000,651,7.97,-48.09,-87.6,-470,-65,-125,-0.4,0.21,0.54,-0.71,126.87,-8.34,-70.64,28.37,walking
395,5244735,210.27,-2000,979.86,-16.45,-55.05,-52.8,-470,-65,-125,-0.42,0.19,0.55,-0.7,126.39,-10.85,-70.23,28.47,-386.17,-2000,819.95,9.03,-21.58,-121.54,-470,-65,-125,-0.42,0.2,0.54,-0.7,124.77,-9.63,-69.86,28.37,walking
396,5244792,-59.57,-2000,1039.49,-21.88,-47.83,-21.07,-470,-65,-125,-0.42,0.21,0.53,-0.71,124.56,-8.64,-69.21,28.48,-831.54,-2000,739.32,4.14,-6.58,-157.33,-470,-65,-125,-0.42,0.24,0.52,-0.7,122.13,-6.16,-69.77,28.38,walking
397,5244849,-142.52,-2000,85.45,-46.42,0.68,45.65,-717,-99,-118,-0.39,0.28,0.55,-0.68,122.47,-2.91,-76.94,28.48,198.85,-2000,701.6,53.16,-24.83,-151.36,-717,-99,-118,-0.43,0.24,0.55,-0.67,121.71,-8.2,-74.28,28.34,walking
398,5244905,769.96,-2000,999.27,-50.76,5.26,55.66,-717,-99,-118,-0.44,0.23,0.55,-0.67,121.59,-9.75,-72.76,28.48,563.05,-2000,1174.62,29.77,91.45,-71.1,-717,-99,-118,-0.48,0.21,0.52,-0.68,117.96,-11.84,-67.68,28.37,walking
399,5244961,1316.16,-2000,839.36,-43.73,11.81,99.33,-778,-92,-361,-0.49,0.2,0.54,-0.65,117.25,-16,-69.67,28.47,551.45,-1349.98,940.67,22.9,-19.66,8.43,-778,-92,-361,-0.51,0.18,0.52,-0.66,116.18,-17.28,-65.7,28.37,walking
400,5245019,936.28,-1827.15,990.78,-11.41,-43.79,114.98,-778,-92,-361,-0.5,0.17,0.53,-0.67,117.66,-17.36,-65.92,28.46,198.79,-1399.05,1061.71,-35.1,23.38,132.67,-778,-92,-361,-0.49,0.2,0.49,-0.69,116.64,-11.5,-63.88,28.39,walking
401,5245075,936.95,-1679.75,922.67,12.7,14.19,152.98,-441,15,-123,-0.5,0.19,0.5,-0.68,116.09,-13.83,-63.89,28.48,517.94,-1301.15,999.76,-58.51,-5.23,210.39,-441,15,-123,-0.49,0.2,0.49,-0.69,116.55,-11.57,-63.72,28.37,walking
402,5245132,990.42,-1532.53,977.11,36.17,-16.5,131.09,-441,15,-123,-0.51,0.17,0.5,-0.68,116.32,-15.46,-62.29,28.47,316.89,-1444.76,897.58,-64.07,-79.73,249.99,-441,15,-123,-0.47,0.2,0.5,-0.7,119.58,-10.73,-64.82,28.38,walking
403,5245187,691.65,-1406.8,983.58,31.64,-39.96,105.9,-441,15,-123,-0.49,0.17,0.5,-0.7,119.11,-14.4,-62.69,28.5,444.15,-1931.27,810.06,-54.88,-125.72,249.99,-343,-282,-109,-0.39,0.18,0.51,-0.75,130.34,-7.1,-64.75,28.38,walking
404,5245244,380.74,-1868.23,868.04,50.06,-30.87,75.42,-343,-282,-109,-0.35,0.16,0.49,-0.78,134.5,-5.46,-62.47,28.47,-227.6,-2000,783.26,-40.34,-102.53,249.52,-343,-282,-109,-0.27,0.2,0.5,-0.8,141,2.71,-65.02,28.37,walking
405,5245301,-1067.69,-2000,1046.57,51.74,-3.46,-4.06,-343,-282,-109,-0.25,0.24,0.47,-0.81,140.55,8.87,-63.22,28.51,-1019.65,-1776.25,277.71,14.81,51.61,-5.47,-354,-557,-125,-0.21,0.29,0.47,-0.81,140.89,15.8,-66.36,28.36,walking
406,5245358,-215.52,-1867.19,899.78,-17.68,18.31,7.12,-354,-557,-125,-0.21,0.27,0.47,-0.81,142.68,14.23,-65.2,28.49,-21.73,-2000,1014.89,45.08,136.24,-116.36,-354,-557,-125,-0.25,0.25,0.47,-0.81,139.6,9.7,-63.54,28.37,walking
407,5245414,441.77,-2000,1228.88,-11.97,106.45,-56.01,-354,-557,-125,-0.28,0.21,0.47,-0.81,139.06,4.6,-61.71,28.48,235.9,-2000,88.93,17.35,118.33,-83.93,-361,-557,-84,-0.29,0.21,0.51,-0.78,138.18,2.18,-66.74,28.38,walking
408,5245470,675.05,-1952.94,909.36,15.97,-55.6,-67.87,-361,-557,-84,-0.29,0.14,0.51,-0.8,143.11,-4.54,-64.07,28.5,271.36,-1544.25,1193.6,39.2,1.12,-90.86,-361,-557,-84,-0.29,0.09,0.48,-0.82,145.11,-7.19,-58.44,28.36,walking
409,5245527,779.72,-2000,1174.62,14.43,-23.93,-71.64,-361,-557,-84,-0.29,0.05,0.49,-0.82,147.47,-12.22,-57.62,28.48,-99.61,-2000,851.38,21.24,-37.8,-70.98,-470,-332,-47,-0.29,0.06,0.5,-0.81,147.24,-10.59,-60.04,28.38,walking
410,5245584,572.75,-1925.96,823.85,18.35,-12.97,-74.14,-470,-332,-47,-0.31,0.05,0.52,-0.8,146.55,-14.02,-61.48,28.5,167.36,-2000,965.58,19.01,0.25,-50.62,-470,-332,-47,-0.3,0.06,0.51,-0.8,146.24,-12.53,-61.46,28.36,walking
411,5245641,599.61,-2000,1073.49,13.22,-37.99,-78.19,-470,-332,-47,-0.32,0.03,0.52,-0.8,146.3,-15.7,-61.07,28.49,-7.57,-1944.76,878.42,7.26,-25.39,-40.28,-470,-332,-47,-0.3,0.06,0.52,-0.8,146.97,-12.66,-62.04,28.36,walking
412,5245697,502.99,-1951.35,971.56,14.36,-25.02,-81.18,-456,-311,-84,-0.32,0.04,0.52,-0.79,145.83,-15.57,-62.38,28.48,-234.92,-1984.5,852.54,6.24,-35.38,-30.66,-456,-311,-84,-0.3,0.07,0.53,-0.79,146.32,-11.26,-63.69,28.37,walking
413,5245754,306.34,-1925.05,987.73,23.9,-15.1,-78.48,-456,-311,-84,-0.31,0.07,0.52,-0.79,145.17,-12.77,-62.88,28.47,-266.24,-1948.55,843.38,4.16,-7.35,-34.13,-456,-311,-84,-0.29,0.1,0.52,-0.79,144.88,-8.46,-63.94,28.36,walking
414,5245809,274.35,-1967.65,1046.33,13.89,-14.76,-92.22,-470,-332,-125,-0.32,0.09,0.52,-0.79,143.03,-11.1,-63.28,28.47,-287.96,-1915.34,793.95,3.51,7.32,-50.64,-470,-332,-125,-0.31,0.12,0.52,-0.79,142.04,-7.39,-64.42,28.36,walking
415,5245867,522.46,-2000,986.88,2.7,-9.91,-64.8,-470,-332,-125,-0.33,0.1,0.53,-0.78,141.12,-10.99,-64.29,28.47,-246.89,-2000,745.61,6.04,-36.38,-68.85,-470,-332,-125,-0.32,0.12,0.53,-0.78,141.53,-8.4,-65.55,28.36,walking
416,5245923,190.06,-2000,799.56,-0.01,-51.19,-69.1,-737,-284,-125,-0.33,0.11,0.55,-0.76,140.93,-10.97,-67.56,28.49,-358.89,-2000,643.37,7.91,-27.85,-93.67,-737,-284,-125,-0.32,0.13,0.55,-0.76,140.28,-8.81,-69.03,28.37,walking
417,5245980,290.1,-2000,1035.89,-22.5,-40.31,-45.52,-737,-284,-125,-0.33,0.12,0.55,-0.76,140.01,-10.65,-68.45,28.49,-384.83,-2000,904.66,5.55,-15.18,-123.4,-737,-284,-125,-0.33,0.14,0.54,-0.76,138.6,-8.85,-67.83,28.37,walking
418,5246037,-133.67,-2000,1048.46,-21.34,-29.68,-12.18,-737,-284,-125,-0.32,0.15,0.53,-0.77,138.48,-6.25,-67.42,28.47,-716.55,-2000,316.47,0.89,7,-159.67,-774,-229,-475,-0.36,0.2,0.56,-0.72,131.92,-6.27,-72.55,28.38,walking
419,5246094,274.11,-2000,457.03,-41.56,-15.43,17.8,-774,-229,-475,-0.38,0.21,0.58,-0.69,129.51,-8.47,-76.43,28.48,146.06,-2000,668.4,51.8,-8.16,-140.33,-774,-229,-475,-0.42,0.19,0.58,-0.68,126.58,-12.51,-74.41,28.35,walking
420,5246150,809.69,-2000,912.84,-51.72,50.88,63.16,-774,-229,-475,-0.44,0.2,0.57,-0.67,123.7,-13.53,-73.8,28.48,871.83,-1855.29,1092.83,21.61,103.81,-68.48,-872,-109,-502,-0.51,0.18,0.54,-0.64,116.63,-18.86,-68.75,28.37,walking
421,5246208,1486.27,-2000,809.75,-41.83,5.02,93.52,-872,-109,-502,-0.51,0.17,0.56,-0.63,116.58,-21.25,-70.28,28.48,356.32,-1434.08,974.49,16.75,-25.85,39.97,-872,-109,-502,-0.51,0.17,0.53,-0.65,115.87,-18.2,-66.19,28.36,walking
422,5246264,855.53,-1813.23,992.43,0.17,-27.67,125.07,-872,-109,-502,-0.51,0.18,0.52,-0.66,116.59,-17.17,-65.84,28.48,367.86,-1346.98,1082.89,-41.85,28.4,144.45,-409,-106,-543,-0.52,0.22,0.49,-0.67,112.69,-12.24,-63.45,28.37,walking
423,5246321,994.32,-1630.49,919.25,20.03,11.96,146.23,-409,-106,-543,-0.53,0.21,0.48,-0.66,111.02,-13.19,-62.63,28.49,428.22,-1290.41,1050.11,-54.89,-28.68,231.77,-409,-106,-543,-0.51,0.24,0.46,-0.68,111.39,-8.45,-61.9,28.39,walking
424,5246378,851.93,-1519.35,1098.57,37.08,-18.03,122.19,-409,-106,-543,-0.53,0.22,0.45,-0.68,110.09,-10.57,-59.17,28.47,210.88,-1455.38,977.97,-76.8,-43.19,249.99,-463,-338,-519,-0.47,0.24,0.45,-0.72,116.4,-3.92,-60.97,28.37,walking
425,5246435,616.64,-1446.78,1009.58,36.89,4.72,95.18,-463,-338,-519,-0.47,0.21,0.44,-0.73,117.72,-5.81,-58.42,28.47,181.88,-2000,818.91,-78.6,-63.31,249.99,-463,-338,-519,-0.41,0.25,0.46,-0.74,122.55,-0.77,-63.33,28.37,walking
426,5246491,36.25,-1980.9,697.08,27.89,6.84,72.91,-463,-338,-519,-0.41,0.27,0.47,-0.74,121.83,0.85,-64.85,28.49,-146.67,-1860.05,532.78,-58.64,37.88,225.18,-463,-338,-519,-0.37,0.32,0.47,-0.74,121.99,6.97,-68.97,28.39,walking
427,5246547,-672.79,-2000,528.63,21.99,54.84,3.2,-468,-415,-518,-0.36,0.36,0.46,-0.73,119.67,11.06,-70.57,28.49,-660.71,-1673.28,664.37,25.99,28.28,-17.66,-468,-415,-518,-0.36,0.37,0.44,-0.73,118.83,13.15,-69.57,28.37,walking
428,5246604,27.1,-1841.8,1067.63,-14.84,-40.11,2.32,-468,-415,-518,-0.38,0.33,0.45,-0.74,120.34,8.84,-67.1,28.47,-350.52,-2000,49.62,57.03,11.87,-99.72,-468,-415,-518,-0.39,0.34,0.47,-0.71,117.97,6.78,-71.56,28.37,walking
429,5246660,-464.17,-2000,122.86,-41.2,-67.41,-16.51,-459,-557,-448,-0.33,0.35,0.51,-0.71,122.91,9.06,-75.81,28.48,530.94,-1938.05,993.53,51.02,79.64,-121.8,-459,-557,-448,-0.39,0.29,0.5,-0.71,122.28,1.36,-71.16,28.35,walking
430,5246717,1283.08,-1572.14,1116.82,8.27,65.82,-60.84,-459,-557,-448,-0.44,0.21,0.51,-0.71,122.57,-8.52,-66.71,28.46,232.6,-2000,933.9,44.99,-71.3,-73.98,-459,-557,-448,-0.42,0.17,0.51,-0.73,126.74,-10.04,-64.71,28.36,walking
431,5246774,217.29,-2000,1084.17,15.11,-22.27,-74.01,-222,-550,-435,-0.41,0.15,0.51,-0.74,129.68,-11.26,-63.48,28.47,-68.36,-1862.49,860.84,14,21.93,-59.2,-222,-550,-435,-0.39,0.16,0.51,-0.75,130.73,-9.19,-63.54,28.37,walking
432,5246830,683.41,-2000,971.25,13.68,-9.43,-71.04,-222,-550,-435,-0.4,0.12,0.52,-0.75,132.28,-13.69,-63.46,28.45,32.23,-2000,879.82,12.42,-26.76,-40.79,-222,-550,-435,-0.38,0.13,0.52,-0.75,134.15,-11.68,-64.12,28.35,walking
433,5246887,508.24,-1958.37,1047.3,14.46,-19.45,-83.98,-222,-550,-435,-0.39,0.1,0.52,-0.75,134.58,-14.59,-63.08,28.48,-199.1,-1933.59,862.73,9.29,-32.36,-33.17,-327,-544,-442,-0.37,0.13,0.52,-0.76,135.43,-10.36,-63.79,28.37,walking
434,5246944,363.22,-1985.53,972.96,23.21,-24.62,-75.71,-327,-544,-442,-0.38,0.11,0.52,-0.76,135.2,-12.32,-63.11,28.47,-293.09,-1966.25,822.33,6.41,-28.34,-33.67,-327,-544,-442,-0.35,0.14,0.51,-0.77,135.81,-8.11,-64.19,28.35,walking
435,5247001,238.4,-1965.82,998.54,22.83,-15.12,-80.92,-327,-544,-442,-0.37,0.13,0.51,-0.77,135.12,-9.87,-63.11,28.48,-323.91,-1944.64,752.81,3.84,6.99,-43.53,-361,-516,-492,-0.36,0.17,0.51,-0.76,133.54,-5.75,-64.58,28.37,walking
436,5247057,483.95,-1958.31,963.07,4.55,18.26,-76.48,-361,-516,-492,-0.39,0.15,0.51,-0.75,131.47,-9.43,-64.11,28.47,-72.88,-2000,849.43,4.12,6.68,-56.21,-361,-516,-492,-0.39,0.17,0.51,-0.75,130.75,-7.66,-64.67,28.37,walking
437,5247113,395.94,-2000,1021.97,-5.42,-24.54,-70.42,-361,-516,-492,-0.4,0.15,0.51,-0.75,130.66,-10.48,-64.31,28.48,-452.15,-1942.2,651,5.23,-29.08,-75.94,-395,-338,-502,-0.4,0.2,0.51,-0.74,127.83,-6.74,-66.42,28.39,walking
438,5247171,317.57,-2000,860.35,-6.81,-38,-64,-395,-338,-502,-0.42,0.19,0.52,-0.72,126.03,-9.5,-66.9,28.47,-208.92,-2000,744.51,6.25,-9.77,-98.15,-395,-338,-502,-0.43,0.21,0.52,-0.71,123.82,-8.14,-67.48,28.35,walking
439,5247227,389.83,-2000,1092.9,-20.32,-26.24,-37.42,-395,-338,-502,-0.44,0.2,0.51,-0.71,122.93,-10.02,-66.44,28.45,-388.55,-2000,746.4,1.17,-16.07,-119.38,-439,-291,-550,-0.45,0.23,0.51,-0.7,120.05,-7.98,-67.32,28.37,walking
440,5247284,-254.09,-2000,984.07,-28.36,-21.26,0.98,-439,-291,-550,-0.44,0.26,0.49,-0.71,119.13,-4.24,-67.39,28.49,-838.87,-2000,292.11,0.08,25.81,-157.71,-439,-291,-550,-0.44,0.3,0.5,-0.69,115.8,-1.29,-70.99,28.35,walking
441,5247340,205.02,-2000,797.61,-46.91,8.91,23.83,-439,-291,-550,-0.44,0.3,0.5,-0.68,115.37,-1.87,-71.61,28.45,152.34,-2000,926.03,44.78,35.87,-133.6,-439,-291,-550,-0.48,0.28,0.49,-0.67,112.86,-5.74,-68.48,28.37,walking
442,5247397,764.53,-2000,1075.38,-57.75,77.81,58.78,-414,-302,-494,-0.49,0.27,0.49,-0.67,112.54,-6.78,-67.97,28.48,922.73,-1848.45,1174.01,6.61,118.19,-88.71,-414,-302,-494,-0.53,0.24,0.48,-0.65,109.6,-11.76,-64.57,28.37,walking
443,5247454,1417.79,-2000,903.63,-50.25,15.99,95.39,-414,-302,-494,-0.52,0.21,0.51,-0.65,112.92,-14.72,-66.41,28.47,249.63,-1492.86,1113.59,-11.85,-8.22,53.31,-414,-302,-494,-0.5,0.21,0.49,-0.68,114.38,-11.59,-63.33,28.38,walking
444,5247510,852.29,-1793.7,1073.18,-3.89,2.84,128.71,-317,-256,-448,-0.49,0.2,0.48,-0.7,116.46,-11.24,-62.56,28.48,425.11,-1363.59,1223.88,-59.46,34.64,144.34,-317,-256,-448,-0.48,0.21,0.46,-0.71,116.69,-7.92,-60.54,28.35,walking
445,5247566,1008.06,-1666.14,1026.92,17.25,40.01,142.07,-317,-256,-448,-0.49,0.2,0.46,-0.72,117.39,-9.31,-59.6,28.48,429.14,-1346.31,1077.94,-87.68,1.7,231.3,-317,-256,-448,-0.46,0.22,0.45,-0.73,119.58,-5.33,-60.24,28.37,walking
446,5247623,862.73,-1542.42,1009.46,24.83,34.3,116.14,-253,-338,-125,-0.41,0.17,0.45,-0.77,127.24,-6.01,-57.04,28.48,292.11,-1461.91,1015.08,-104.12,-12.86,249.99,-253,-338,-125,-0.34,0.18,0.45,-0.8,135.07,-0.75,-58.52,28.36,walking
447,5247681,566.77,-1713.38,845.95,14.3,35.51,96.44,-253,-338,-125,-0.32,0.16,0.46,-0.81,138.43,-1.79,-58.86,28.49,212.52,-2000,647.28,-96.65,-36.42,249.99,-253,-338,-125,-0.25,0.18,0.5,-0.81,144.35,2.7,-64.38,28.35,walking
448,5247737,188.84,-1864.99,461.73,23.71,89.7,70.49,-442,-335,-98,-0.26,0.2,0.52,-0.79,141.64,2.75,-67.9,28.47,-196.23,-1944.21,720.4,-53.12,-4.97,199.6,-442,-335,-98,-0.22,0.23,0.52,-0.79,143.52,8.08,-69.72,28.39,walking
449,5247794,-490.23,-2000,745.91,17.75,-3.76,10.09,-442,-335,-98,-0.22,0.24,0.52,-0.79,143.06,9.32,-69.67,28.47,-615.23,-1734.86,721.86,18.56,37.43,-16.56,-442,-335,-98,-0.22,0.26,0.51,-0.79,141.35,11.19,-69.32,28.37,walking
450,5247850,25.7,-1843.69,982.67,-14.57,-28.91,7.53,-442,-335,-98,-0.24,0.23,0.51,-0.79,141.86,7.28,-68.09,28.45,-104.25,-2000,388.79,49.07,51.7,-102.77,-354,-332,-77,-0.27,0.23,0.53,-0.78,139.39,4.01,-69.81,28.35,walking
451,5247906,-108.34,-2000,323.67,-4.85,18.88,-40.06,-354,-332,-77,-0.26,0.23,0.54,-0.76,139.68,3.62,-72.03,28.48,-54.44,-2000,581.42,40.18,111.38,-97.5,-354,-332,-77,-0.29,0.23,0.53,-0.76,137.48,2.25,-70.51,28.39,walking
452,5247962,1025.15,-1897.83,1140.32,-1.04,170.3,-64.8,-354,-332,-77,-0.35,0.18,0.52,-0.76,133.98,-4.71,-66.23,28.47,589.78,-1577.15,1053.53,55.19,16.33,-72.11,-425,-311,-125,-0.38,0.14,0.49,-0.77,133.41,-9.63,-61.2,28.36,walking
453,5248019,631.35,-2000,1045.17,25.97,-81.49,-59.95,-425,-311,-125,-0.38,0.1,0.5,-0.77,135.69,-13.26,-60.63,28.46,-182.92,-2000,941.22,33.03,-36.86,-64.97,-425,-311,-125,-0.36,0.12,0.49,-0.78,136.85,-10.06,-60.57,28.35,walking
454,5248075,633.85,-1982.97,1131.1,19.49,1.55,-63.67,-425,-311,-125,-0.38,0.09,0.49,-0.78,136.25,-13.14,-59.58,28.46,182.43,-2000,968.81,22.66,-4.59,-40.28,-214,-275,-123,-0.36,0.1,0.49,-0.79,138.2,-11.59,-59.87,28.38,walking
455,5248132,588.26,-2000,984.99,16.69,-46.99,-75.41,-214,-275,-123,-0.35,0.07,0.51,-0.78,140.11,-14.81,-60.32,28.46,-17.4,-1956.48,849.12,7.1,-49.33,-31.04,-214,-275,-123,-0.33,0.08,0.51,-0.79,142.43,-12.04,-61.89,28.36,walking
456,5248189,379.82,-1978.45,922.61,18.91,-42.59,-77.69,-214,-275,-123,-0.33,0.06,0.52,-0.79,143.38,-13.98,-62.17,28.47,-304.87,-1947.33,781.49,9.62,-38.05,-24.99,-214,-275,-123,-0.3,0.09,0.52,-0.79,144.76,-9.3,-63.62,28.38,walking
457,5248246,244.14,-1921.08,938.11,27.56,-22.09,-73.63,-307,-284,-57,-0.3,0.08,0.51,-0.8,145.47,-10.42,-62.28,28.47,-344.6,-1957.15,777.4,7.49,-8.61,-31.08,-307,-284,-57,-0.27,0.11,0.51,-0.8,146.25,-6.04,-63.33,28.36,walking
458,5248303,233.15,-1959.41,1001.22,13.61,11.9,-92.25,-307,-284,-57,-0.29,0.1,0.51,-0.8,145.17,-8.15,-62.38,28.44,-295.84,-1909.24,766.36,7.74,27.25,-47.89,-307,-284,-57,-0.28,0.13,0.51,-0.8,144.8,-4.44,-63.24,28.37,walking
459,5248359,540.28,-2000,1010.19,4.17,9.7,-64.15,-331,-338,-77,-0.3,0.1,0.51,-0.8,144.52,-8.53,-62.63,28.46,-159.73,-2000,794.37,6.13,-11.05,-63.16,-331,-338,-77,-0.28,0.11,0.52,-0.8,145.23,-6.56,-63.47,28.37,walking
460,5248415,239.62,-2000,879.39,-7.55,-27.22,-66.47,-331,-338,-77,-0.28,0.1,0.52,-0.8,146.11,-8.29,-64.07,28.45,-402.65,-1953.8,600.59,8.42,-13.13,-82.66,-331,-338,-77,-0.27,0.12,0.53,-0.8,146.6,-5.1,-65.75,28.36,walking
461,5248472,366.33,-2000,855.47,-17.46,-35.62,-40.58,-373,-316,-103,-0.28,0.1,0.54,-0.79,146.66,-8.19,-66.95,28.47,-298.52,-2000,746.22,11.55,-28.95,-115.97,-373,-316,-103,-0.28,0.11,0.54,-0.78,146.15,-7.12,-67.32,28.35,walking
462,5248529,-92.65,-2000,1063.48,-31.86,-32.11,-9.76,-373,-316,-103,-0.26,0.12,0.54,-0.79,146.68,-5.04,-66.82,28.48,-671.51,-2000,637.82,-3.38,0.05,-155.11,-373,-316,-103,-0.27,0.15,0.54,-0.78,144.79,-3.03,-68.4,28.37,walking
463,5248585,-195.01,-2000,432.43,-49.43,-5.9,33.79,-454,-186,-92,-0.26,0.18,0.58,-0.75,143.5,-1.24,-74.59,28.45,-462.34,-2000,1047.91,9.56,12.47,-143.73,-454,-186,-92,-0.28,0.18,0.56,-0.76,141.26,-2.3,-72.13,28.38,walking
464,5248642,563.05,-2000,1491.46,-71.88,79.79,45.06,-454,-186,-92,-0.31,0.18,0.54,-0.76,138.22,-4.3,-69.76,28.45,449.46,-2000,1559.75,-36.58,176.15,-87.63,-454,-186,-92,-0.38,0.18,0.52,-0.75,131.58,-7.07,-65.96,28.34,walking
465,5248699,1103.94,-2000,1100.46,-68.79,113.5,86.57,-454,-186,-92,-0.4,0.18,0.52,-0.73,129.3,-8.87,-66.5,28.45,605.41,-1365.48,1269.78,-42.48,54.72,-60.04,-466,-89,-71,-0.45,0.15,0.5,-0.72,125.34,-13.53,-62.64,28.36,walking
466,5248755,957.64,-1917.91,1177.25,-42.05,48.22,87.79,-466,-89,-71,-0.45,0.15,0.51,-0.72,124.69,-13.71,-62.91,28.47,98.88,-1499.51,1283.26,-89,54.93,80.07,-466,-89,-71,-0.44,0.19,0.48,-0.73,123.34,-8.47,-61.77,28.35,walking
467,5248811,837.65,-1798.46,1110.41,-13.02,86.23,131.23,-466,-89,-71,-0.45,0.19,0.48,-0.73,122.05,-8.49,-61.59,28.46,365.78,-1436.16,1270.94,-123.04,38.61,154.78,-429,-120,16,-0.42,0.22,0.46,-0.75,123.52,-3.72,-60.72,28.36,walking
468,5248868,826.9,-1662.66,1087.59,-0.08,85.54,119.14,-429,-120,16,-0.43,0.21,0.45,-0.75,123.24,-4.48,-59.48,28.46,327.88,-1580.26,1174.87,-135.05,20.07,227.99,-429,-120,16,-0.39,0.23,0.45,-0.77,126.05,0.28,-61.54,28.37,walking
469,5248925,759.77,-1643.37,892.21,-6.81,74.51,98.12,-429,-120,16,-0.41,0.22,0.47,-0.75,125.24,-2.81,-62,28.47,399.48,-1652.04,1056.7,-134.5,19.04,249.99,-429,-120,16,-0.37,0.24,0.47,-0.76,127.99,1.3,-64.47,28.37,walking
470,5248981,753.97,-1777.47,723.82,8.87,76.34,72.69,-233,-113,-125,-0.41,0.23,0.49,-0.73,124.53,-3.72,-65.93,28.46,159.67,-1970.03,617.68,-89.9,-6.81,249.99,-233,-113,-125,-0.36,0.27,0.51,-0.73,126.59,1.52,-70.44,28.35,walking
471,5249037,-83.8,-1973.21,510.13,52.84,92.63,36.68,-233,-113,-125,-0.38,0.29,0.5,-0.72,123.08,2.78,-70.99,28.46,-355.04,-1847.05,783.51,-12.24,-47.85,163.84,-233,-113,-125,-0.34,0.32,0.48,-0.74,124.99,7.92,-70.46,28.34,walking
472,5249093,-900.27,-2000,862.12,42.77,-56.43,37.83,-439,-106,-91,-0.33,0.32,0.47,-0.75,125.26,10.11,-69.01,28.47,-662.29,-1800.48,943.79,51.97,46.88,-58.82,-439,-106,-91,-0.37,0.32,0.45,-0.74,121.72,8.39,-67.34,28.37,walking
473,5249150,250.85,-1819.27,1392.94,13.74,48.34,-4.33,-439,-106,-91,-0.43,0.28,0.45,-0.73,118.76,1.94,-63.78,28.48,-99.55,-2000,-513.55,11.28,154.34,-27.72,-439,-106,-91,-0.43,0.34,0.5,-0.67,113.31,1.86,-74.05,28.37,walking
474,5249206,181.27,-2000,137.7,-1.21,95.66,-38.31,-260,-120,-98,-0.44,0.36,0.51,-0.65,111.55,0.84,-77.04,28.46,319.4,-1996.4,959.35,33.74,65.23,-98.52,-260,-120,-98,-0.47,0.32,0.49,-0.66,110.98,-1.89,-72.07,28.35,walking
475,5249263,1226.99,-1587.34,1181.15,34.61,31.22,-52.83,-260,-120,-98,-0.51,0.24,0.49,-0.66,111.29,-9.97,-65.4,28.46,174.01,-2000,535.95,36.47,-84.18,-64.83,-260,-120,-98,-0.48,0.23,0.5,-0.68,115.8,-9.29,-66.14,28.37,walking
476,5249320,187.93,-1990.48,1045.17,10.59,-33.44,-71.87,-260,-120,-98,-0.47,0.22,0.49,-0.7,117.78,-8.91,-63.87,28.48,-66.89,-1931.82,1049.13,21.22,39.37,-47.11,-348,3,-71,-0.5,0.23,0.47,-0.69,114.15,-8.78,-63.04,28.35,walking
477,5249375,660.52,-2000,1072.08,14.63,18.13,-66.41,-348,3,-71,-0.53,0.21,0.48,-0.66,111.35,-13.9,-62.62,28.46,12.57,-2000,755.07,9,-8,-36.03,-348,3,-71,-0.52,0.23,0.49,-0.66,110.94,-11.9,-64.47,28.34,walking
478,5249431,533.39,-1971.56,898.62,12.25,2.91,-73.28,-348,3,-71,-0.54,0.22,0.5,-0.64,109.29,-15.21,-64.45,28.48,-178.1,-1924.32,710.82,2.82,-21.81,-29.4,-327,44,-64,-0.53,0.25,0.49,-0.64,108.83,-12.18,-66.34,28.34,walking
479,5249488,302.98,-1977.91,814.33,18.3,8.71,-79.01,-327,44,-64,-0.55,0.24,0.5,-0.62,106.63,-14.67,-66.3,28.48,-364.44,-1905.27,661.13,2.69,-0.03,-32.65,-327,44,-64,-0.54,0.28,0.49,-0.63,105.83,-9.96,-67.71,28.34,walking
480,5249543,197.39,-1937.19,952.21,7.83,24.67,-90.9,-327,44,-64,-0.57,0.27,0.48,-0.61,102.65,-12.63,-66.24,28.45,-181.27,-1965.94,752.87,3.43,50.99,-44.81,-361,-113,-125,-0.54,0.3,0.45,-0.65,104.17,-5.79,-65.43,28.37,walking
481,5249600,705.69,-2000,991.03,1.25,41.28,-63.06,-361,-113,-125,-0.55,0.28,0.46,-0.64,104.41,-8.32,-64.09,28.47,-108.95,-1990.3,769.9,-4.88,8.16,-57.11,-361,-113,-125,-0.53,0.3,0.45,-0.66,106.05,-4.59,-64.66,28.36,walking
482,5249656,299.93,-2000,929.14,-16.82,4.64,-66.68,-361,-113,-125,-0.53,0.29,0.45,-0.66,106.82,-5.73,-64.64,28.46,-398.68,-2000,509.28,-2.75,1.79,-76.42,-361,-113,-125,-0.5,0.32,0.45,-0.67,107.71,-1.89,-66.98,28.37,walking
483,5249712,220.7,-2000,760.31,-24.77,-24.17,-48.6,-361,133,-125,-0.57,0.29,0.48,-0.6,101.53,-11.34,-67.71,28.46,-240.23,-2000,730.1,0.17,17.57,-104.62,-361,133,-125,-0.59,0.3,0.48,-0.58,97.26,-12.58,-67.78,28.35,walking
484,5249768,261.35,-2000,1153.08,-32.01,-19.23,-15.91,-361,133,-125,-0.62,0.29,0.47,-0.56,94.31,-14.64,-66.17,28.45,-535.77,-2000,700.5,-15.98,14.64,-143.46,-361,133,-125,-0.63,0.33,0.45,-0.54,89.18,-12.06,-67.61,28.37,walking
485,5249837,-151.73,-2000,684.33,-51.9,4.67,18.78,-351,167,-67,-0.63,0.36,0.44,-0.52,86.8,-10.16,-69.47,28.47,-640.01,-2000,583.74,-11.77,17.29,-128.94,-351,167,-67,-0.64,0.38,0.43,-0.51,83.24,-9.42,-69.6,28.34,walking
486,5249892,354.06,-2000,1224.79,-59.56,116.84,51.48,-351,167,-67,-0.68,0.38,0.4,-0.49,77.51,-9.57,-66.4,28.44,552.92,-2000,1348.88,-21.98,196.34,-95.05,-351,167,-67,-0.74,0.37,0.36,-0.43,68.52,-12.59,-61.81,28.36,walking
487,5249949,1177.61,-2000,1089.6,-58.18,122.47,76.78,-361,-116,-98,-0.7,0.38,0.34,-0.5,74.73,-5.4,-61.79,28.47,497.62,-1502.14,1150.82,-34.97,74.98,-33.78,-361,-116,-98,-0.68,0.37,0.32,-0.54,78.17,-2.18,-59.44,28.36,walking
488,5250005,963.13,-1866.15,1172.79,-43.02,51.14,105.01,-361,-116,-98,-0.65,0.37,0.33,-0.58,83.98,0.38,-59.52,28.47,272.83,-1473.08,1405.03,-89.46,62.55,76.21,-361,-116,-98,-0.62,0.37,0.31,-0.62,87.82,4.75,-57.75,28.34,walking
489,5250062,846.68,-1742.8,1237.67,-6.25,88.33,130.07,-356,-111,-119,-0.6,0.36,0.31,-0.64,91.23,4.69,-56.7,28.45,324.28,-1500.37,1308.17,-120.83,66.7,166.98,-356,-111,-119,-0.57,0.37,0.31,-0.67,94.84,7.68,-57.35,28.36,walking
490,5250118,903.75,-1789.49,1072.39,7.23,96.28,126.66,-356,-111,-119,-0.57,0.35,0.33,-0.67,96.21,5.21,-57.42,28.46,411.5,-1567.26,1091.49,-135.47,17.44,239.75,-356,-111,-119,-0.52,0.36,0.35,-0.69,101.19,7.83,-59.8,28.36,walking
491,5250174,738.95,-1657.1,892.52,-5.77,82.98,92.12,-356,-111,-119,-0.54,0.34,0.37,-0.68,101.07,3.72,-60.49,28.48,289.31,-1867.92,960.69,-136.88,42.92,249.99,-358,153,-125,-0.56,0.36,0.38,-0.64,96.47,1.79,-63.81,28.37,walking
492,5250231,693.12,-1917.24,662.72,18.39,115.07,72.56,-358,153,-125,-0.63,0.35,0.4,-0.57,88.16,-5.69,-63.75,28.46,279.17,-1922.24,583.62,-99.44,44.46,249.99,-358,153,-125,-0.61,0.39,0.4,-0.56,86.94,-2.86,-68.41,28.37,walking
493,5250287,-80.75,-1953.92,353.52,41.72,146.19,47.56,-358,153,-125,-0.64,0.43,0.38,-0.52,79.91,-2.05,-69.23,28.48,-513.98,-1781.01,761.41,-5.85,-49.35,145.79,-468,127,119,-0.62,0.43,0.34,-0.56,81.82,3.15,-66.72,28.35,walking
494,5250344,-682.13,-2000,968.44,42.66,-69.45,48.35,-468,127,119,-0.63,0.4,0.32,-0.58,82.81,3.51,-61.96,28.46,-508.67,-1731.51,925.78,41.7,35.32,-43.2,-468,127,119,-0.66,0.39,0.3,-0.57,79.72,2.14,-58.49,28.37,walking
495,5250399,108.89,-1896.61,1254.33,10.24,28.43,-2.26,-468,127,119,-0.7,0.36,0.31,-0.54,77.31,-2.25,-55.8,28.45,-291.56,-2000,38.39,53.86,69.26,-58.14,-383,158,55,-0.7,0.4,0.32,-0.5,72.93,-2.95,-61.35,28.36,walking
496,5250456,-690.61,-2000,-478.09,-24.98,30.88,-7.07,-383,158,55,-0.67,0.47,0.33,-0.47,70.75,-0.25,-70.29,28.44,480.04,-1920.65,552.92,45.29,91.61,-114.32,-383,158,55,-0.73,0.43,0.35,-0.41,64.79,-9.28,-66.61,28.35,walking
497,5250510,1462.1,-1479.37,1201.11,9.41,98.67,-44.1,-383,158,55,-0.78,0.37,0.37,-0.35,59.57,-18.47,-60.87,28.46,566.89,-2000,771.3,48.18,-48.58,-66.1,-383,158,55,-0.77,0.37,0.38,-0.36,61.28,-18.42,-62.46,28.35,walking
498,5250566,220.15,-2000,1072.94,22.26,-57.04,-68.9,-388,235,50,-0.77,0.36,0.37,-0.36,61.22,-18.03,-61.14,28.45,-254.7,-1888.61,977.36,17.5,8.29,-55.37,-388,235,50,-0.77,0.38,0.34,-0.38,59.98,-13.73,-60.4,28.37,walking
499,5250623,608.34,-2000,1126.22,21.82,-18.06,-66.76,-388,235,50,-0.79,0.36,0.35,-0.35,58.33,-17.3,-58.64,28.45,77.45,-2000,784.18,11.38,4.74,-35.93,-388,235,50,-0.78,0.39,0.34,-0.36,58.13,-14.45,-60.67,28.33,walking
500,5250680,529.05,-1981.26,872.68,14.14,-0.11,-72.81,-463,252,67,-0.78,0.38,0.35,-0.34,57.02,-16.73,-61.16,28.46,-124.63,-1948,725.28,0.01,-20.06,-29.73,-463,252,67,-0.77,0.41,0.33,-0.35,57.54,-12.79,-63.29,28.37,walking
501,5250736,402.65,-1913.09,856.99,13.98,2.45,-75,-463,252,67,-0.78,0.4,0.34,-0.33,55.85,-15.18,-62.52,28.45,-126.83,-1945.5,664.55,-0.03,-6.94,-26.08,-463,252,67,-0.77,0.43,0.32,-0.35,55.93,-11.41,-64.54,28.36,walking
502,5250791,266.05,-1948.79,944.34,17.36,6.55,-92.82,-463,263,43,-0.79,0.42,0.32,-0.33,53.46,-13.67,-62.53,28.44,-341.49,-1892.64,750.55,-0.99,19.39,-34.25,-463,263,43,-0.78,0.44,0.29,-0.34,52.6,-8.83,-63.6,28.35,walking
503,5250847,502.93,-1970.28,956.05,8.75,51.19,-70.98,-463,263,43,-0.8,0.43,0.3,-0.31,49.44,-12.08,-62.12,28.45,-86.98,-1993.47,733.28,-2.35,31.81,-43.45,-463,263,43,-0.79,0.45,0.28,-0.31,48.3,-9.06,-63.89,28.35,walking
504,5250903,362.73,-2000,1026.86,-14.34,8.02,-68.05,-463,263,43,-0.8,0.45,0.28,-0.29,46.54,-11.39,-63.14,28.45,-404.36,-2000,668.52,-6.55,10.77,-66.48,-354,-102,36,-0.76,0.49,0.2,-0.37,50.21,3.87,-64.13,28.35,walking
505,5250960,233.95,-2000,690.55,-20.81,3.54,-64.45,-354,-102,36,-0.74,0.52,0.2,-0.39,51.41,6.26,-66.93,28.45,-307.86,-2000,564.76,-4.55,10.91,-92.96,-354,-102,36,-0.72,0.54,0.18,-0.4,51.39,10.31,-69.57,28.34,walking
506,5251015,351.99,-2000,999.45,-30.14,-22.13,-35.86,-354,-102,36,-0.72,0.53,0.2,-0.4,52.85,7.97,-69.24,28.45,-439.33,-2000,772.77,-11.02,7.71,-118.58,-300,317,53,-0.78,0.5,0.18,-0.33,44.25,3.43,-64.26,28.37,walking
507,5251070,-77.82,-2000,930.73,-56.77,-3.63,17.76,-300,317,53,-0.8,0.49,0.16,-0.3,39.63,1.52,-62.33,28.45,-647.58,-2000,670.35,-22.35,36.32,-147.79,-300,317,53,-0.82,0.5,0.14,-0.25,33.28,1.19,-62.55,28.36,walking
508,5251126,138.85,-1968.51,1020.2,-44.28,15.04,15.4,-300,317,53,-0.83,0.49,0.14,-0.22,30.17,-0.61,-61.53,28.45,56.34,-2000,1054.2,-6.31,111.24,-106.96,-300,317,53,-0.85,0.49,0.12,-0.17,23.94,-2.57,-60.08,28.34,walking
509,5251183,885.93,-2000,1128.85,-51.82,127.18,50.35,-456,317,-125,-0.83,0.51,0.14,-0.18,25.92,-2.69,-64.37,28.43,781.43,-1694.82,1194.34,-19.27,160.71,-84.94,-456,317,-125,-0.83,0.51,0.15,-0.15,24.12,-5.97,-64.38,28.33,walking
510,5251240,1247.13,-2000,1017.76,-58.4,75.24,87.47,-456,317,-125,-0.81,0.53,0.18,-0.16,27.18,-7.1,-68.46,28.46,291.2,-1524.78,1175.29,-45.27,52.46,16.09,-456,317,-125,-0.81,0.53,0.17,-0.18,28.24,-5.03,-67.34,28.34,walking
511,5251296,824.95,-1852.66,1184.88,-18.92,46.19,117.89,-409,362,-64,-0.82,0.52,0.17,-0.18,28.94,-5.46,-65.83,28.46,278.63,-1452.33,1455.38,-87.21,78.39,112.87,-409,362,-64,-0.83,0.51,0.15,-0.2,28.72,-2.2,-63.39,28.34,walking
512,5251352,895.69,-1853.82,1238.95,7.1,84.68,139.98,-409,362,-64,-0.83,0.49,0.15,-0.2,29.35,-2.65,-61.95,28.45,428.53,-1507.87,1318.54,-112.75,45.55,193.7,-409,362,-64,-0.82,0.5,0.14,-0.23,31.58,0.4,-62.29,28.35,walking
513,5251408,828.43,-1748.29,1071.53,16.71,81.64,118.06,-334,324,-98,-0.83,0.49,0.15,-0.23,32.19,-1.52,-61.31,28.45,307.8,-1616.15,1061.28,-123.64,33.49,249.99,-334,324,-98,-0.8,0.51,0.14,-0.27,35.42,3.09,-63.82,28.37,walking
514,5251465,768.86,-1685.12,792.79,4.72,87.04,109.27,-334,324,-98,-0.81,0.51,0.16,-0.25,34.42,-0.25,-63.94,28.46,421.33,-1898.07,976.75,-95.73,8.35,249.99,-334,324,-98,-0.79,0.52,0.15,-0.28,37.27,3.01,-66.2,28.35,walking
515,5251520,475.65,-1800.23,732.97,38.58,68.66,76.29,-334,324,-98,-0.8,0.52,0.16,-0.26,35.61,0.85,-65.22,28.45,86.49,-1954.59,671.14,-49.71,0.18,249.33,-470,263,-17,-0.77,0.54,0.14,-0.3,38.51,6.46,-68.31,28.36,walking
516,5251576,-304.14,-1998.35,780.4,73.42,55.52,12.15,-470,263,-17,-0.79,0.53,0.12,-0.29,36.43,7.31,-65.72,28.45,-913.76,-1769.78,575.2,10.58,0.79,87.43,-470,263,-17,-0.76,0.55,0.06,-0.33,36.81,15.72,-66.76,28.37,walking
517,5251636,-488.1,-1990.42,1027.53,25.65,-1.96,7.81,-470,263,-17,-0.78,0.53,0.06,-0.32,36.11,14.31,-63.76,28.47,-77.58,-1700.93,952.7,56.75,160.62,-98.56,-388,242,-118,-0.8,0.52,0.06,-0.28,31.85,10.84,-63.07,28.34,walking
518,5251693,1091.67,-1488.1,1321.04,-27.44,78.71,-36.47,-388,242,-118,-0.82,0.5,0.13,-0.24,32.14,1.76,-61.98,28.44,-747.25,-2000,217.22,21.88,75.25,-13.58,-388,242,-118,-0.78,0.56,0.1,-0.27,32.38,8.53,-68.37,28.34,walking
519,5251749,-613.65,-2000,-549.01,-11.2,144.65,-47.6,-388,242,-118,-0.72,0.64,0.08,-0.25,27.89,11.53,-79.96,28.45,412.6,-2000,194.64,45.57,85.19,-103.87,-346,-111,-92,-0.71,0.66,0.09,-0.23,26.96,9.85,-83.67,28.33,walking
520,5251806,1157.53,-1378.17,1336.55,-3.38,32.89,-48.45,-346,-111,-92,-0.74,0.62,0.12,-0.22,28.85,5.49,-78.26,28.46,34.67,-1960.94,1023.32,45.78,-35.03,-69.38,-346,-111,-92,-0.74,0.6,0.1,-0.28,33.24,10.31,-75.26,28.35,walking
521,5251863,508.54,-2000,1162.96,17.75,0.08,-65.68,-346,-111,-92,-0.74,0.59,0.12,-0.3,36.94,10.16,-73.42,28.46,23.93,-1865.48,924.74,19.3,14.34,-52.88,-346,-111,-92,-0.73,0.59,0.11,-0.34,40.12,13.5,-72.8,28.35,walking
522,5251919,663.15,-2000,1033.69,11.77,-11.92,-66.2,-359,319,-109,-0.78,0.54,0.17,-0.27,37.41,1.79,-68.15,28.45,33.14,-1989.07,819.64,8.16,-17.78,-34.45,-359,319,-109,-0.79,0.53,0.18,-0.26,37.24,-0.01,-67.64,28.37,walking
523,5251975,494.08,-1965.09,867.07,16.75,-16.34,-81.73,-359,319,-109,-0.8,0.51,0.21,-0.23,36.62,-6.17,-66.7,28.45,-244.08,-1926.7,731.87,7,-33.19,-32.93,-359,319,-109,-0.79,0.52,0.2,-0.25,37.78,-3.55,-67.62,28.35,walking
524,5252031,213.44,-1950.38,872.38,22.96,-13.98,-76.48,-304,331,-125,-0.8,0.5,0.22,-0.23,36.88,-6.64,-66.19,28.47,-348.69,-1919.07,670.53,9.09,3.8,-36.51,-304,331,-125,-0.8,0.52,0.2,-0.25,36.75,-3.14,-67.22,28.34,walking
525,5252087,179.63,-1960.88,1026.37,14.71,20.88,-92.58,-304,331,-125,-0.81,0.5,0.2,-0.22,34.92,-5.83,-65.21,28.44,-274.41,-1933.96,755.43,9.9,47.43,-50.51,-304,331,-125,-0.81,0.52,0.18,-0.23,33.93,-2.74,-66.06,28.37,walking
526,5252143,694.52,-1987.37,979.19,-0.33,35.29,-61.52,-226,345,-114,-0.82,0.5,0.2,-0.19,31.13,-8.63,-64.85,28.46,-37.78,-1995.36,852.42,6.07,-0.45,-61.4,-226,345,-114,-0.82,0.5,0.2,-0.19,30.8,-7.52,-65.24,28.35,walking
527,5252199,482.91,-2000,986.63,-6.76,-13.78,-65.66,-226,345,-114,-0.82,0.5,0.22,-0.17,30.57,-10.71,-65.07,28.45,-297.73,-1982.54,685.12,2.98,-17.02,-72.95,-226,345,-114,-0.81,0.51,0.2,-0.19,30.91,-7.57,-66.74,28.37,walking
528,5252255,376.04,-2000,868.41,-14.87,-22.12,-61.28,-226,345,-114,-0.81,0.51,0.22,-0.17,30.93,-10.09,-67.16,28.45,-232.48,-2000,704.77,3.91,-5.31,-98.23,-470,348,-125,-0.8,0.53,0.2,-0.2,32.48,-6.64,-69.65,28.36,walking
529,5252311,253.97,-2000,1025.76,-21.37,-22.2,-32.39,-470,348,-125,-0.79,0.53,0.21,-0.21,33.99,-6.74,-69.58,28.44,-474.06,-2000,739.75,-5,-13.92,-128.84,-470,348,-125,-0.79,0.54,0.2,-0.22,34.4,-4.24,-70.63,28.34,walking
530,5252369,-260.44,-2000,840.88,-42.22,-22.48,14.45,-470,348,-125,-0.77,0.56,0.18,-0.25,36.07,-0.09,-71.67,28.45,-639.53,-2000,185.73,-6.29,33.79,-152.47,-361,345,-125,-0.76,0.59,0.17,-0.23,33.46,0.8,-75.12,28.35,walking
531,5252424,235.47,-2000,977.36,-34.82,49.67,33.57,-361,345,-125,-0.77,0.57,0.16,-0.22,32.1,0.08,-72.87,28.46,168.27,-2000,1097.41,16.51,127.88,-118.76,-361,345,-125,-0.8,0.55,0.16,-0.18,27.9,-2.91,-69.3,28.34,walking
532,5252496,1123.96,-2000,911.44,-54.15,83.7,76.07,-361,345,-125,-0.79,0.55,0.2,-0.16,28.24,-7.83,-71.7,28.43,721.07,-1499.39,1024.48,10.97,27.93,-60.01,-327,-37,-327,-0.78,0.53,0.24,-0.24,39.06,-6.66,-70.22,28.34,walking
533,5252552,1013.85,-1976.62,1033.45,-31.65,-7,100.96,-327,-37,-327,-0.74,0.51,0.27,-0.34,51.79,-2.99,-71.01,28.43,188.29,-1498.72,1180.73,-42.21,31.59,85.43,-327,-37,-327,-0.71,0.49,0.26,-0.43,60.3,2.96,-67.95,28.34,walking
534,5252609,784.67,-1765.75,1100.52,1.78,39.4,132.56,-327,-37,-327,-0.68,0.47,0.28,-0.48,68.47,3.66,-65.91,28.47,352.48,-1445.19,1191.35,-76.16,36.38,149.35,-246,-34,-388,-0.65,0.44,0.3,-0.54,76.15,4.96,-63.84,28.37,walking
