,timestamp,top_accel_x,top_accel_y,top_accel_z,top_mag_x,top_mag_y,top_mag_z,top_gy_x,top_gy_y,top_gy_z,top_q0,top_qx,top_qy,top_qz,top_yaw,top_pitch,top_roll,top_temperature,bottom_accel_x,bottom_accel_y,bottom_accel_z,bottom_mag_x,bottom_mag_y,bottom_mag_z,bottom_gy_x,bottom_gy_y,bottom_gy_z,bottom_q0,bottom_qx,bottom_qy,bottom_qz,bottom_yaw,bottom_pitch,bottom_roll,bottom_temperature,action
0,859045,646.42,-592.83,-384.52,16.59,-11.17,-8.65,-253,-174,-415,0.44,0.06,-0.84,0.31,163.82,-51.10,-131.72,29.56,746.77,-167.48,-212.40,11.38,-4.19,-0.75,-244,-159,-393,0.56,0.14,-0.79,0.23,173.62,-69.66,-142.46,28.47,walking
1,859210,606.99,-493.96,-372.44,22.87,-6.32,-14.02,-244,-159,-393,0.46,0.08,-0.83,0.31,165.06,-54.10,-130.92,29.55,603.15,-224.91,-299.32,15.44,-7.77,1.07,-233,-174,-405,0.46,0.09,-0.83,0.29,167.36,-55.31,-134.32,28.46,walking
2,859266,584.47,-542.79,-260.07,15.94,-14.50,-6.65,-233,-174,-405,0.45,0.07,-0.83,0.32,162.90,-52.55,-128.85,29.55,637.82,-239.81,-216.67,17.06,-13.93,-3.91,-233,-174,-405,0.47,0.08,-0.82,0.31,163.56,-55.48,-130.00,28.46,walking
3,859323,554.63,-554.14,-241.09,13.31,-26.16,-4.08,-233,-174,-405,0.46,0.05,-0.82,0.34,159.64,-51.76,-125.23,29.54,650.45,-251.46,-178.10,20.69,-29.34,-8.74,-233,-174,-405,0.48,0.07,-0.81,0.32,160.42,-55.18,-126.17,28.44,walking
4,859379,656.37,-499.08,-167.66,6.78,-39.22,-5.71,-233,-212,-435,0.48,0.06,-0.81,0.34,156.85,-53.87,-122.26,29.55,744.20,-212.71,-187.26,17.58,-34.78,-9.51,-233,-212,-435,0.50,0.08,-0.80,0.32,158.98,-57.68,-125.02,28.49,walking
5,859435,628.30,-486.82,-206.24,7.16,-34.28,-14.55,-233,-212,-435,0.49,0.06,-0.81,0.33,156.74,-55.41,-122.64,29.55,581.30,-224.24,-218.75,8.62,-14.66,-9.64,-233,-212,-435,0.49,0.07,-0.81,0.31,159.05,-57.20,-125.96,28.47,walking
6,859492,580.75,-505.25,-248.23,9.12,-0.89,-14.43,-253,-164,-529,0.48,0.04,-0.81,0.33,155.20,-54.35,-123.35,29.55,670.47,-213.38,-225.46,4.01,1.58,-16.36,-253,-164,-529,0.50,0.05,-0.81,0.30,156.71,-57.68,-126.69,28.44,walking
7,859548,696.04,-531.92,-250.18,7.75,-1.87,-18.41,-253,-164,-529,0.50,0.03,-0.81,0.31,153.27,-55.95,-123.46,29.56,744.38,-189.58,-228.70,7.86,-16.60,-20.23,-253,-164,-529,0.52,0.06,-0.81,0.27,158.32,-61.12,-130.16,28.47,walking
8,859616,688.90,-531.74,-246.70,8.34,-22.13,-24.00,-226,-154,-550,0.51,0.04,-0.81,0.29,154.34,-58.19,-126.53,29.57,638.06,-254.27,-260.86,8.27,-12.47,-28.58,-226,-154,-550,0.52,0.05,-0.82,0.25,159.89,-60.44,-134.68,28.47,walking
9,859701,515.99,-582.03,-394.90,4.22,-20.45,-30.93,-226,-154,-550,0.48,0.02,-0.83,0.27,157.75,-54.11,-132.35,29.55,318.97,-399.66,-437.26,25.04,-25.84,-65.21,-246,-120,-489,0.36,0.01,-0.89,0.29,166.10,-39.97,-138.50,28.47,walking
10,859796,-23.80,-923.52,-438.48,-4.30,-65.44,3.75,-246,-120,-489,0.28,-0.04,-0.89,0.35,162.60,-28.44,-133.10,29.54,418.40,-789.61,-835.33,53.08,-34.74,-122.05,-246,-120,-489,0.27,-0.02,-0.90,0.33,166.07,-28.44,-136.07,28.45,walking
11,859856,326.48,-842.77,-821.78,-61.45,-63.10,45.85,-378,-68,-553,0.22,-0.04,-0.92,0.33,166.06,-22.47,-137.95,29.56,824.22,-434.14,-8.06,53.74,-16.95,-85.24,-378,-68,-553,0.32,0.01,-0.88,0.35,165.85,-34.71,-132.12,28.46,walking
12,859913,834.29,-804.75,-158.45,-57.54,7.16,66.94,-378,-68,-553,0.36,-0.01,-0.86,0.37,159.57,-37.46,-126.15,29.55,1106.75,-30.70,-71.35,20.90,32.98,-73.58,-378,-68,-553,0.46,0.05,-0.83,0.32,160.67,-51.97,-128.70,28.47,walking
13,859969,1051.03,-596.62,-153.81,-52.65,58.14,103.16,-378,-68,-553,0.49,0.02,-0.81,0.33,150.55,-53.09,-119.94,29.53,946.11,366.46,20.14,-86.19,-0.62,125.39,-253,-65,-523,0.65,0.05,-0.75,0.09,165.66,-80.93,-153.69,28.46,walking
14,860069,1004.15,-270.87,-314.03,-1.62,47.33,99.29,-253,-65,-523,0.63,0.04,-0.76,0.15,148.38,-76.75,-132.87,29.55,999.33,259.89,-134.83,-103.62,-29.32,203.91,-253,-65,-523,0.63,0.04,-0.76,0.13,153.67,-76.82,-138.96,28.46,walking
15,860154,772.71,-322.81,-597.41,27.20,-13.12,70.89,-199,-113,-523,0.51,0.01,-0.84,0.20,159.52,-58.79,-140.98,29.57,786.80,-91.55,-300.11,-46.94,-104.78,249.99,-199,-113,-523,0.48,-0.02,-0.85,0.20,156.29,-54.42,-140.69,28.46,walking
16,860218,353.52,-371.22,-235.23,60.75,-78.73,66.59,-199,-113,-523,0.44,-0.05,-0.85,0.27,152.01,-47.01,-132.30,29.55,348.27,-192.87,56.64,40.95,-181.54,174.76,-199,-113,-523,0.46,-0.06,-0.82,0.33,144.18,-45.84,-119.99,28.47,walking
17,860282,-47.42,-485.05,-247.86,78.48,-186.58,65.28,-141,-229,-772,0.35,-0.14,-0.84,0.38,145.19,-29.08,-121.65,29.56,-221.74,-272.22,-796.20,94.38,-213.94,28.27,-141,-229,-772,0.23,-0.16,-0.89,0.35,151.57,-17.69,-132.76,28.46,walking
18,860338,-427.80,-442.75,-598.33,1.79,-95.21,23.16,-141,-229,-772,0.13,-0.22,-0.91,0.33,151.05,-5.14,-139.00,29.57,415.89,-63.72,-634.09,53.83,26.27,-129.88,-141,-229,-772,0.21,-0.19,-0.93,0.22,151.97,-17.83,-148.61,28.48,walking
19,860395,890.38,-573.30,413.94,5.97,115.83,-59.84,-141,-229,-772,0.36,-0.15,-0.88,0.26,146.82,-34.45,-137.13,29.56,214.42,-604.98,-638.73,-44.59,99.51,-1.56,-126,-145,-966,0.35,-0.19,-0.88,0.24,143.15,-31.80,-138.50,28.45,walking
20,860551,1004.94,-686.95,-123.72,5.98,-61.12,-35.74,-199,-222,-850,0.63,0.02,-0.72,0.30,122.23,-66.17,-95.59,29.57,636.47,-249.15,-105.47,26.82,-54.17,-32.38,-199,-222,-850,0.62,0.02,-0.74,0.28,127.82,-67.05,-102.98,28.45,walking
21,860608,634.46,-586.24,-226.75,17.81,-29.64,-25.38,-199,-222,-850,0.59,-0.02,-0.76,0.29,130.70,-61.72,-107.81,29.56,773.07,-297.91,-263.55,25.38,-55.76,-21.68,-199,-222,-850,0.57,-0.01,-0.78,0.26,138.25,-62.45,-116.82,28.47,walking
22,860666,524.54,-421.45,-108.15,-3.77,-13.15,-16.30,-234,-118,-889,0.57,-0.04,-0.78,0.27,133.75,-59.50,-113.88,29.54,664.67,-213.13,-111.51,21.21,-50.56,-15.51,-234,-118,-889,0.58,-0.02,-0.78,0.25,136.04,-62.20,-116.84,28.46,walking
23,860722,679.32,-521.06,-182.80,9.20,-64.29,-8.10,-234,-118,-889,0.56,-0.04,-0.79,0.26,136.18,-58.57,-117.40,29.55,635.80,-272.34,-246.34,27.09,-92.16,-7.17,-234,-118,-889,0.54,-0.03,-0.81,0.25,143.11,-58.21,-124.85,28.48,walking
24,860778,530.94,-507.45,-126.34,-2.60,-111.77,-1.08,-222,-120,-934,0.52,-0.06,-0.81,0.27,140.67,-53.56,-122.44,29.56,378.17,-329.22,-124.76,22.93,-92.21,-8.01,-222,-120,-934,0.50,-0.07,-0.81,0.28,140.35,-51.30,-122.02,28.45,walking
25,860835,427.73,-471.31,-129.70,-3.10,-81.40,-11.18,-222,-120,-934,0.49,-0.09,-0.81,0.30,138.15,-48.33,-120.16,29.56,499.45,-216.98,-218.99,10.78,-53.44,-15.53,-222,-120,-934,0.50,-0.08,-0.83,0.25,142.60,-51.98,-127.25,28.47,walking
26,860897,368.04,-523.25,-314.88,4.68,-54.63,-7.89,-239,-102,-975,0.46,-0.11,-0.84,0.27,142.15,-45.53,-127.26,29.55,351.99,-354.31,-350.10,13.98,-40.89,-26.58,-239,-102,-975,0.44,-0.11,-0.85,0.26,144.65,-43.27,-131.18,28.46,walking
27,860955,203.92,-558.11,-386.84,8.57,-74.19,-7.37,-239,-102,-975,0.39,-0.14,-0.86,0.29,144.57,-35.64,-131.19,29.55,300.60,-345.89,-490.48,30.62,-54.70,-52.63,-239,-102,-975,0.36,-0.14,-0.89,0.26,148.63,-34.15,-137.32,28.48,walking
28,861011,318.79,-684.51,-620.79,-12.76,-122.01,12.69,-195,-3,-975,0.31,-0.16,-0.90,0.26,149.08,-28.59,-139.50,29.55,696.59,-664.79,-1079.77,81.11,-118.55,-94.67,-195,-3,-975,0.30,-0.13,-0.91,0.23,154.27,-29.36,-144.34,28.46,walking
29,861071,346.80,-1073.67,-1444.34,-67.70,-171.19,73.55,-195,-3,-975,0.22,-0.16,-0.94,0.22,154.56,-20.26,-148.93,29.56,1155.15,-513.79,-1132.51,144.41,-190.15,-105.82,-195,-3,-975,0.25,-0.11,-0.94,0.21,160.04,-24.51,-150.60,28.46,walking
30,861127,1092.77,-837.04,-614.87,-110.02,-199.95,83.08,-195,-3,-975,0.26,-0.12,-0.94,0.20,158.23,-26.04,-151.07,29.56,1242.19,-48.22,32.71,159.49,-149.88,-19.67,-280,112,-988,0.35,-0.07,-0.91,0.20,160.89,-38.37,-148.92,28.45,walking
31,861232,1129.15,-299.01,-393.62,-45.49,-143.23,86.92,-280,112,-988,0.43,-0.07,-0.89,0.13,159.09,-48.45,-153.81,29.55,880.49,419.13,-304.08,59.94,-111.82,119.09,-436,211,-981,0.44,-0.04,-0.89,0.11,163.97,-51.00,-158.20,28.48,walking
32,861289,899.78,-212.71,-375.37,-23.75,-92.98,84.52,-436,211,-981,0.45,-0.05,-0.88,0.14,159.76,-51.02,-151.57,29.56,932.19,371.15,-232.67,-31.03,-98.51,179.14,-436,211,-981,0.47,-0.04,-0.88,0.11,162.83,-54.43,-156.83,28.47,walking
33,861347,649.41,-222.53,-315.25,-0.29,-43.85,42.49,-436,211,-981,0.47,-0.04,-0.87,0.15,158.24,-53.77,-148.58,29.56,926.94,49.56,-238.59,-111.11,-66.80,205.39,-436,211,-981,0.49,-0.06,-0.86,0.14,154.74,-55.45,-148.36,28.48,walking
34,861403,709.35,-394.84,-428.04,-2.12,36.06,-11.31,-468,264,-980,0.49,-0.07,-0.85,0.18,149.95,-54.28,-139.91,29.56,792.54,-335.33,-331.54,-131.86,-88.50,214.95,-468,264,-980,0.47,-0.11,-0.85,0.19,144.41,-49.74,-137.17,28.49,walking
35,861460,105.65,-544.19,-642.58,-6.17,-7.23,3.61,-468,264,-980,0.40,-0.15,-0.87,0.24,144.83,-38.25,-137.18,29.56,18.43,-127.32,-764.83,-59.05,-131.16,148.75,-468,264,-980,0.28,-0.19,-0.92,0.20,149.50,-25.69,-148.01,28.48,walking
36,861544,-372.19,-488.04,-643.37,12.51,-164.89,20.48,-468,271,-879,0.00,-0.27,-0.91,0.30,149.56,9.28,-146.35,29.57,380.68,-35.71,-491.52,88.62,-124.81,-106.13,-468,271,-879,0.16,-0.22,-0.93,0.23,150.55,-10.75,-148.91,28.47,walking
37,861600,989.20,-759.40,-623.11,-8.27,-120.92,-40.21,-468,271,-879,0.24,-0.17,-0.93,0.24,152.50,-21.01,-146.19,29.55,230.41,-215.03,-568.79,58.41,-45.32,-39.41,-412,324,-765,0.23,-0.14,-0.94,0.20,157.63,-22.00,-151.60,28.50,walking
38,861742,690.19,-423.77,-173.28,25.15,-80.80,-30.99,-412,324,-765,0.49,0.01,-0.82,0.29,152.29,-54.36,-126.42,29.56,567.57,-336.91,-205.69,59.42,-66.64,-44.23,-361,317,-755,0.49,0.03,-0.82,0.28,156.06,-55.79,-129.83,28.45,walking
39,861832,616.21,-553.41,-283.02,24.39,-3.95,-39.82,-361,317,-755,0.48,0.01,-0.83,0.29,153.18,-53.45,-127.63,29.56,743.29,-273.38,-242.80,20.30,-6.98,-36.34,-361,317,-755,0.51,0.03,-0.82,0.26,156.05,-57.88,-132.05,28.50,walking
40,861887,504.64,-452.03,-222.84,19.09,-15.82,-44.10,-321,365,-556,0.50,0.01,-0.82,0.28,153.98,-55.43,-128.90,29.56,529.85,-285.77,-202.27,10.73,-4.12,-27.71,-321,365,-556,0.50,0.02,-0.82,0.26,155.12,-56.93,-130.62,28.48,walking
41,861944,545.78,-544.31,-319.21,18.62,-18.54,-46.31,-321,365,-556,0.48,0.01,-0.83,0.28,154.98,-53.77,-129.95,29.56,563.11,-271.12,-296.08,12.00,-29.82,-28.46,-321,365,-556,0.48,0.02,-0.84,0.25,159.76,-54.84,-135.71,28.45,walking
42,862001,434.20,-502.62,-312.13,15.81,-34.36,-46.02,-302,333,-545,0.45,0.01,-0.85,0.28,158.93,-50.43,-133.78,29.54,397.22,-280.76,-347.05,9.80,-10.95,-32.73,-302,333,-545,0.43,0.02,-0.86,0.26,162.84,-49.28,-138.91,28.46,walking
43,862056,419.37,-521.00,-378.17,18.14,1.37,-42.27,-302,333,-545,0.42,0.00,-0.87,0.28,161.47,-46.25,-136.46,29.55,463.87,-285.16,-334.05,10.14,0.80,-40.36,-302,333,-545,0.42,0.02,-0.87,0.26,164.23,-47.86,-140.13,28.45,walking
44,862119,514.34,-499.33,-356.69,14.05,-12.82,-36.89,-231,374,-551,0.42,0.02,-0.87,0.26,163.82,-47.67,-139.56,29.56,623.84,-262.51,-336.98,18.13,-11.30,-49.59,-231,374,-551,0.44,0.04,-0.87,0.23,167.84,-51.61,-144.68,28.47,walking
45,862174,622.13,-517.52,-307.92,10.70,-26.02,-38.38,-231,374,-551,0.44,0.03,-0.86,0.25,165.45,-51.36,-141.11,29.54,646.61,-259.83,-254.76,16.90,-11.31,-55.98,-231,374,-551,0.47,0.06,-0.85,0.22,168.46,-55.57,-144.54,28.48,walking
46,862230,525.15,-527.83,-274.35,6.55,-20.84,-46.79,-231,374,-551,0.46,0.04,-0.85,0.25,164.47,-53.33,-139.38,29.54,561.83,-341.92,-367.68,8.08,9.07,-68.40,-451,374,-548,0.46,0.05,-0.85,0.26,164.81,-53.12,-137.75,28.47,walking
47,862287,499.39,-612.61,-431.88,-4.80,2.46,-44.07,-451,374,-548,0.43,0.03,-0.85,0.30,162.00,-48.81,-133.14,29.55,711.55,-280.64,-495.91,10.69,5.63,-89.85,-451,374,-548,0.44,0.06,-0.86,0.27,168.18,-51.54,-139.54,28.46,walking
48,862365,331.36,-680.48,-636.05,-21.58,-76.48,-19.59,-409,345,-485,0.31,0.01,-0.90,0.31,168.09,-34.07,-137.65,29.56,323.79,-753.11,-922.18,60.87,-80.67,-136.14,-409,345,-485,0.25,0.04,-0.91,0.32,174.34,-29.26,-139.86,28.48,walking
49,862427,-202.70,-947.14,-1040.53,-81.08,-143.09,34.97,-409,345,-485,0.14,0.01,-0.94,0.31,175.92,-15.89,-142.58,29.58,584.47,-950.56,278.44,43.21,-55.39,-99.33,-409,345,-485,0.25,0.07,-0.87,0.41,175.00,-30.13,-128.15,28.47,walking
50,862484,152.59,-1223.63,457.95,-79.92,69.66,60.18,-414,-43,-440,0.26,0.00,-0.82,0.50,163.43,-26.11,-113.53,29.57,1311.83,5.98,667.60,-45.62,156.53,-97.13,-414,-43,-440,0.43,0.05,-0.78,0.46,154.26,-45.41,-107.79,28.47,walking
51,862540,1277.71,-907.04,2.56,-62.87,114.24,117.46,-414,-43,-440,0.47,0.01,-0.76,0.45,144.26,-46.49,-102.34,29.56,1093.69,472.78,294.98,-74.77,55.30,-5.68,-414,-43,-440,0.57,0.08,-0.73,0.37,136.68,-62.73,-98.52,28.48,walking
52,862597,1216.49,-421.45,-323.73,-14.16,95.05,110.40,-414,-43,-440,0.57,0.06,-0.73,0.37,136.42,-61.64,-99.30,29.56,978.94,530.64,-0.55,-104.99,48.29,103.33,-216,-92,-489,0.63,0.08,-0.72,0.26,130.47,-73.53,-101.55,28.48,walking
53,862652,1080.38,-327.03,-361.63,13.77,91.06,119.90,-216,-92,-489,0.62,0.05,-0.73,0.27,131.15,-69.89,-103.91,29.56,1026.25,496.58,-64.94,-139.34,4.70,182.82,-216,-92,-489,0.64,0.06,-0.74,0.21,135.26,-75.59,-112.98,28.48,walking
54,862710,1103.52,-210.94,-448.00,27.57,83.17,88.92,-216,-92,-489,0.62,0.05,-0.75,0.22,139.86,-72.96,-117.05,29.58,1149.84,205.14,-193.48,-170.78,4.65,249.99,-466,-92,-543,0.61,0.05,-0.76,0.21,143.12,-72.14,-121.21,28.47,walking
55,862765,894.47,-331.79,-580.38,15.82,92.87,44.65,-466,-92,-543,0.58,0.06,-0.77,0.25,149.60,-67.87,-123.32,29.58,1058.04,-129.82,-397.09,-166.00,-26.51,249.99,-466,-92,-543,0.55,0.03,-0.80,0.25,151.15,-62.90,-126.93,28.48,walking
56,862823,442.69,-590.27,-938.17,-8.61,88.37,61.41,-466,-92,-543,0.47,0.01,-0.83,0.29,155.24,-52.40,-129.17,29.57,486.45,-166.63,-562.74,-89.58,-1.59,217.04,-305,326,-811,0.43,-0.03,-0.87,0.22,158.22,-47.79,-141.44,28.47,walking
57,862879,-967.41,-713.20,-1061.28,23.75,60.70,20.50,-305,326,-811,0.33,-0.09,-0.91,0.24,157.60,-33.87,-143.19,29.56,186.58,-108.09,-220.52,50.87,-22.87,-43.25,-305,326,-811,0.34,-0.06,-0.91,0.21,161.33,-36.42,-147.95,28.48,walking
58,862935,456.54,-300.35,-328.98,14.12,-78.95,-0.02,-305,326,-811,0.35,-0.06,-0.91,0.21,161.77,-37.95,-147.45,29.57,552.12,-641.24,-951.66,79.16,-25.34,-72.20,-305,326,-811,0.33,-0.04,-0.92,0.22,164.43,-35.72,-147.87,28.48,walking
59,862991,-27.28,-909.30,-1166.02,16.75,63.54,45.55,-351,-109,-745,0.26,-0.08,-0.92,0.26,161.21,-26.31,-143.55,29.58,749.33,-698.91,-523.50,30.21,107.01,-100.51,-351,-109,-745,0.34,-0.05,-0.90,0.28,159.70,-35.19,-138.72,28.46,walking
60,863051,1402.04,-545.84,-31.98,28.93,93.25,-72.59,-351,-109,-745,0.45,-0.01,-0.85,0.28,155.09,-49.36,-131.83,29.56,862.73,251.04,-8.42,37.84,43.23,-63.24,-351,-109,-745,0.54,0.05,-0.81,0.21,161.71,-64.58,-139.55,28.49,walking
61,863107,805.73,-593.20,-263.18,44.17,-25.05,-54.48,-300,290,-772,0.53,0.04,-0.81,0.24,157.27,-62.30,-133.63,29.54,754.70,-272.28,-422.12,41.86,-22.00,-51.42,-300,290,-772,0.52,0.06,-0.83,0.21,164.60,-61.96,-141.71,28.48,walking
62,863163,588.75,-527.16,-357.12,28.02,-17.01,-51.41,-300,290,-772,0.50,0.04,-0.84,0.24,162.05,-57.80,-138.47,29.55,708.50,-302.12,-298.95,24.64,3.88,-46.17,-300,290,-772,0.51,0.05,-0.83,0.22,163.87,-59.68,-141.00,28.48,walking
63,863219,565.67,-546.26,-315.06,28.19,-5.81,-51.79,-239,310,-819,0.49,0.03,-0.84,0.23,160.40,-56.91,-137.88,29.55,648.01,-258.61,-325.50,15.12,0.92,-42.82,-239,310,-819,0.50,0.03,-0.84,0.20,164.02,-58.83,-143.70,28.47,walking
64,863277,647.09,-528.50,-324.34,25.94,-0.88,-58.26,-239,310,-819,0.50,0.02,-0.84,0.22,160.93,-57.61,-140.37,29.56,722.72,-214.48,-367.13,12.46,-3.53,-39.33,-239,310,-819,0.50,0.03,-0.84,0.18,166.02,-59.56,-147.54,28.47,walking
65,863334,613.46,-519.04,-383.30,23.62,-3.79,-62.23,-239,310,-819,0.49,0.02,-0.85,0.20,163.00,-56.91,-143.74,29.55,517.15,-234.13,-343.87,7.77,10.50,-40.50,-470,-109,-772,0.48,0.04,-0.85,0.22,165.62,-55.92,-142.86,28.49,walking
66,863389,597.05,-514.65,-348.27,23.38,29.40,-63.16,-470,-109,-772,0.47,0.04,-0.84,0.27,162.37,-54.50,-135.44,29.55,537.60,-257.26,-411.80,6.20,24.12,-46.35,-470,-109,-772,0.46,0.06,-0.85,0.26,166.26,-54.12,-139.02,28.47,walking
67,863446,474.67,-524.84,-414.25,15.59,14.84,-56.98,-470,-109,-772,0.44,0.05,-0.85,0.29,164.80,-50.27,-135.25,29.57,527.10,-360.41,-331.42,9.91,21.33,-62.87,-468,-118,-821,0.44,0.06,-0.85,0.29,165.52,-51.35,-135.69,28.47,walking
68,863527,444.70,-582.34,-533.94,-10.50,-23.17,-55.88,-468,-118,-821,0.38,0.04,-0.88,0.30,167.40,-43.16,-137.72,29.54,373.72,-401.86,-560.12,13.88,-3.93,-99.41,-468,-118,-821,0.35,0.05,-0.89,0.28,171.54,-40.97,-141.93,28.48,walking
69,863581,218.26,-697.63,-381.84,-5.39,-22.51,-28.34,-468,-118,-821,0.31,0.02,-0.89,0.33,167.91,-34.67,-135.92,29.55,504.88,-780.64,-664.12,32.14,-13.11,-142.68,-415,269,-806,0.32,0.05,-0.90,0.31,172.10,-36.57,-139.61,28.46,walking
70,863644,-204.53,-890.50,-745.42,-51.14,-66.60,21.49,-415,269,-806,0.22,0.00,-0.93,0.30,171.77,-24.06,-141.80,29.56,506.90,-926.27,-414.43,33.68,23.09,-133.36,-415,269,-806,0.26,0.03,-0.90,0.33,172.01,-29.75,-137.36,28.48,walking
71,863700,617.07,-731.87,28.87,-55.80,42.40,43.89,-415,269,-806,0.34,0.01,-0.87,0.36,164.28,-36.73,-129.42,29.56,1122.99,-221.07,451.48,5.76,107.06,-83.50,-361,215,-772,0.50,0.06,-0.80,0.32,155.70,-56.83,-123.00,28.48,walking
72,863756,1073.85,-958.01,-41.81,-43.94,61.20,96.96,-361,215,-772,0.52,0.00,-0.79,0.33,143.13,-55.18,-114.20,29.53,1066.10,248.60,261.78,-44.56,91.56,-40.65,-361,215,-772,0.63,0.04,-0.74,0.24,132.30,-71.47,-108.60,28.45,walking
73,863812,1020.51,-626.16,-235.05,-26.52,112.75,121.93,-361,215,-772,0.62,-0.02,-0.74,0.27,122.68,-64.97,-101.44,29.55,1121.77,464.78,86.43,-107.36,78.33,64.67,-392,98,-765,0.67,0.02,-0.72,0.19,113.04,-76.15,-95.73,28.47,walking
74,863869,1188.35,-495.42,-354.43,-3.25,107.72,128.17,-392,98,-765,0.65,-0.01,-0.72,0.23,114.48,-69.75,-96.09,29.57,1043.64,513.43,-84.29,-146.16,25.12,138.02,-392,98,-765,0.67,0.02,-0.73,0.17,119.57,-76.88,-104.45,28.47,walking
75,863926,1142.64,-239.44,-438.42,7.61,100.37,117.49,-392,98,-765,0.65,0.01,-0.74,0.20,123.87,-72.87,-106.84,29.55,1194.21,531.98,-175.72,-173.71,-6.07,212.90,-414,8,-879,0.64,0.01,-0.75,0.15,135.25,-76.15,-122.08,28.49,walking
76,863981,1221.01,-175.60,-563.78,17.88,87.29,48.08,-414,8,-879,0.63,0.02,-0.76,0.17,141.98,-74.16,-126.17,29.55,1123.05,310.36,-252.93,-162.58,-42.19,249.99,-414,8,-879,0.61,0.01,-0.78,0.14,148.46,-72.83,-135.91,28.46,walking
77,864037,908.75,-338.38,-593.51,3.70,33.11,32.94,-414,8,-879,0.57,0.01,-0.80,0.17,151.47,-67.20,-136.20,29.55,569.40,-431.52,-348.14,-97.86,-83.31,249.99,-414,8,-879,0.51,-0.07,-0.82,0.23,143.68,-54.81,-129.85,28.47,walking
78,864094,-202.45,-382.87,-692.26,62.29,41.70,67.87,-470,139,-904,0.40,-0.12,-0.87,0.27,146.63,-38.97,-132.87,29.56,-384.89,-51.82,-658.45,26.09,-118.65,118.53,-470,139,-904,0.26,-0.16,-0.91,0.26,152.03,-23.31,-142.19,28.48,walking
79,864152,-562.81,-524.11,-483.22,43.91,-129.82,46.47,-470,139,-904,0.13,-0.21,-0.92,0.32,151.98,-5.84,-140.32,29.56,673.16,76.54,-377.87,103.86,-74.05,-98.56,-470,139,-904,0.24,-0.14,-0.93,0.23,155.89,-23.00,-147.58,28.49,walking
80,864208,889.95,-976.38,-633.61,5.18,-34.32,-49.60,-466,133,-880,0.29,-0.12,-0.91,0.27,155.31,-27.64,-141.21,29.58,143.86,-583.07,-1115.23,-3.59,112.47,-28.19,-466,133,-880,0.27,-0.13,-0.92,0.25,155.39,-25.43,-144.17,28.47,walking
81,864264,197.94,-500.98,-537.90,-11.91,86.34,-22.34,-466,133,-880,0.27,-0.15,-0.91,0.26,153.31,-24.82,-141.70,29.55,949.95,-54.44,107.06,12.70,127.91,-94.07,-466,133,-880,0.43,-0.09,-0.87,0.22,151.54,-44.94,-139.94,28.48,walking
82,864320,1028.08,-70.68,-74.83,30.94,34.42,-40.38,-329,121,-980,0.51,-0.04,-0.84,0.18,151.76,-57.88,-140.27,29.56,1018.98,-304.38,-336.85,57.12,-12.19,-61.18,-329,121,-980,0.53,-0.02,-0.83,0.18,154.18,-60.67,-140.33,28.49,walking
83,864377,688.90,-606.57,-270.20,24.30,-47.15,-52.86,-329,121,-980,0.52,-0.03,-0.83,0.22,149.70,-57.12,-133.07,29.56,605.59,-219.54,-168.46,30.85,-13.39,-57.92,-329,121,-980,0.53,-0.01,-0.82,0.21,151.22,-60.54,-134.21,28.46,walking
84,864452,692.38,-613.10,-301.51,29.69,-14.06,-53.16,-307,105,-904,0.51,-0.03,-0.82,0.26,146.04,-55.59,-126.73,29.56,702.58,-255.00,-225.04,17.03,-18.14,-41.66,-307,105,-904,0.53,-0.02,-0.82,0.23,148.72,-59.18,-130.66,28.48,walking
85,864509,686.22,-527.16,-264.10,27.20,-24.83,-56.52,-307,105,-904,0.52,-0.02,-0.82,0.24,147.43,-57.79,-128.66,29.54,633.18,-207.40,-296.94,19.03,-30.17,-32.49,-307,105,-904,0.52,-0.01,-0.83,0.21,153.42,-59.25,-135.93,28.47,walking
86,864566,533.39,-482.60,-296.75,20.52,-33.10,-52.16,-275,155,-875,0.50,-0.02,-0.83,0.23,152.02,-55.69,-134.10,29.56,479.06,-285.71,-276.67,14.94,-12.20,-34.22,-275,155,-875,0.50,-0.02,-0.84,0.22,153.49,-55.30,-136.59,28.49,walking
87,864623,534.00,-537.54,-306.88,22.10,1.97,-52.38,-275,155,-875,0.49,-0.04,-0.84,0.24,150.31,-53.13,-132.88,29.56,579.53,-255.80,-349.61,9.96,-0.05,-39.63,-275,155,-875,0.49,-0.03,-0.85,0.21,153.96,-54.72,-138.51,28.47,walking
88,864679,516.72,-514.77,-325.93,13.85,-18.54,-49.06,-275,155,-875,0.48,-0.04,-0.85,0.23,151.60,-51.79,-135.39,29.55,561.52,-312.62,-290.16,14.18,-11.96,-48.97,-248,155,-872,0.48,-0.04,-0.85,0.21,152.98,-53.58,-137.89,28.49,walking
89,864736,523.19,-507.57,-245.06,9.75,-27.29,-50.05,-248,155,-872,0.48,-0.05,-0.84,0.23,149.60,-52.13,-133.87,29.56,574.22,-281.56,-310.06,11.23,-5.38,-61.82,-248,155,-872,0.49,-0.04,-0.85,0.21,152.42,-54.41,-138.13,28.47,walking
90,864794,473.88,-553.89,-338.26,2.53,-10.51,-61.89,-248,155,-872,0.47,-0.06,-0.85,0.23,149.80,-50.93,-135.16,29.56,516.72,-298.52,-474.67,3.20,14.37,-81.79,-453,160,-880,0.46,-0.04,-0.86,0.22,155.01,-50.28,-139.78,28.47,walking
91,864849,411.44,-663.94,-383.48,-7.38,-9.77,-42.25,-453,160,-880,0.43,-0.06,-0.86,0.27,151.49,-45.23,-133.53,29.56,468.57,-586.36,-564.94,15.77,-4.32,-108.64,-453,160,-880,0.41,-0.06,-0.87,0.27,154.54,-43.23,-135.59,28.48,walking
92,864922,-80.69,-914.67,-860.05,-43.34,-78.93,17.31,-453,160,-880,0.25,-0.13,-0.91,0.29,155.26,-22.65,-139.24,29.58,479.13,-754.21,-879.46,53.67,-44.04,-144.12,-463,139,-860,0.26,-0.09,-0.92,0.29,159.44,-24.97,-140.76,28.48,walking
93,864978,503.91,-666.56,-214.78,-69.68,-44.49,53.67,-463,139,-860,0.29,-0.10,-0.90,0.31,155.40,-27.55,-135.23,29.55,997.07,-594.42,106.51,30.10,81.12,-82.35,-463,139,-860,0.41,-0.06,-0.85,0.32,150.93,-41.54,-127.90,28.48,walking
94,865036,929.57,-1003.91,-71.84,-60.78,68.32,95.48,-463,139,-860,0.45,-0.10,-0.82,0.34,140.32,-42.45,-118.84,29.55,1507.81,363.59,146.18,-31.37,90.19,-55.80,-195,112,-769,0.58,-0.05,-0.79,0.21,134.77,-62.66,-121.46,28.48,walking
95,865092,1177.12,-670.29,-260.44,-44.91,60.30,110.62,-195,112,-769,0.59,-0.10,-0.77,0.22,125.35,-59.99,-114.98,29.57,951.84,467.16,41.69,-77.19,32.07,67.81,-195,112,-769,0.64,-0.06,-0.76,0.12,127.31,-72.25,-121.51,28.48,walking
96,865148,1136.35,-299.13,-327.70,-10.37,74.71,121.46,-195,112,-769,0.63,-0.08,-0.76,0.15,121.77,-69.07,-115.69,29.56,981.20,513.06,54.20,-117.89,25.52,123.61,-195,112,-769,0.66,-0.05,-0.74,0.08,124.23,-77.42,-121.38,28.48,walking
97,865204,1129.21,-225.65,-346.80,13.87,90.73,105.40,-253,105,-880,0.65,-0.06,-0.74,0.12,119.86,-73.76,-114.12,29.56,1140.56,530.27,-86.00,-142.54,0.08,198.53,-253,105,-880,0.66,-0.05,-0.75,0.08,127.31,-77.45,-124.27,28.49,walking
98,865343,676.70,-387.70,-615.48,37.79,-92.83,67.87,-468,210,-879,0.35,-0.14,-0.86,0.34,146.00,-30.33,-127.40,29.56,742.25,-206.36,301.03,61.65,-223.72,233.14,-468,210,-879,0.40,-0.12,-0.83,0.36,142.55,-35.52,-120.26,28.47,walking
99,865424,-468.20,-572.20,-264.59,96.84,-250.00,63.84,-466,283,-840,0.15,-0.24,-0.85,0.45,147.42,-2.54,-123.92,29.58,-93.57,-230.22,-904.48,108.42,-179.80,-37.12,-466,283,-840,0.16,-0.22,-0.89,0.36,149.04,-7.39,-133.87,28.47,walking
100,865481,-328.67,-416.99,-640.93,-11.04,-49.54,-21.20,-466,283,-840,0.13,-0.23,-0.91,0.32,149.45,-5.42,-139.56,29.55,-536.44,-1609.25,-711.12,3.06,64.54,-54.83,-466,283,-840,0.17,-0.23,-0.89,0.36,147.79,-8.36,-133.56,28.47,walking
101,865538,-652.16,-1161.38,-1078.00,-24.28,167.32,2.06,-466,283,-840,0.20,-0.27,-0.88,0.33,142.60,-9.80,-135.23,29.57,831.36,-712.40,-295.29,-6.20,110.66,-111.80,-468,-118,-767,0.32,-0.21,-0.87,0.31,141.22,-25.08,-131.24,28.48,walking
102,865595,1271.42,-256.65,-323.91,10.22,27.65,-47.13,-468,-118,-767,0.47,-0.11,-0.85,0.23,143.39,-48.28,-132.79,29.55,873.60,-98.21,-305.24,25.08,-21.56,-58.85,-468,-118,-767,0.49,-0.05,-0.84,0.22,149.85,-53.67,-135.37,28.48,walking
103,865668,759.40,-567.20,-222.47,-0.95,-49.71,-30.40,-470,-120,-867,0.49,-0.04,-0.83,0.26,147.90,-52.60,-128.25,29.58,606.93,-283.08,-26.43,32.08,-39.19,-44.00,-470,-120,-867,0.52,-0.01,-0.80,0.28,146.05,-56.73,-122.32,28.47,walking
104,865729,749.08,-626.10,-201.35,12.70,-18.39,-26.34,-470,-120,-867,0.52,-0.01,-0.80,0.32,143.64,-54.60,-117.44,29.56,857.18,-227.29,-224.55,9.18,-17.61,-32.30,-470,-120,-867,0.53,0.02,-0.80,0.28,147.91,-59.39,-121.88,28.48,walking
105,865786,791.26,-560.85,-198.30,5.16,-29.99,-27.57,-470,-120,-867,0.53,0.02,-0.79,0.30,146.70,-57.85,-119.31,29.55,728.58,-165.16,-234.01,13.88,-46.78,-14.78,-415,-92,-826,0.53,0.04,-0.80,0.27,153.26,-60.84,-126.60,28.47,walking
106,865842,650.45,-498.78,-247.38,-2.54,-81.70,-11.69,-415,-92,-826,0.50,0.03,-0.81,0.29,153.90,-56.77,-126.75,29.53,506.23,-319.76,-179.99,20.11,-82.49,-4.38,-415,-92,-826,0.49,0.03,-0.82,0.30,155.45,-54.61,-127.41,28.49,walking
107,865904,441.83,-523.80,-170.59,-7.75,-84.92,-2.21,-415,-92,-826,0.46,-0.00,-0.83,0.33,152.83,-49.32,-124.20,29.55,499.21,-284.48,-152.71,13.63,-83.06,-8.26,-415,324,-556,0.46,0.02,-0.83,0.31,155.48,-51.01,-126.50,28.47,walking
108,865961,462.71,-497.07,-214.36,-12.22,-105.75,3.74,-415,324,-556,0.43,0.00,-0.84,0.33,156.18,-46.95,-126.59,29.57,467.35,-251.65,-284.06,14.67,-96.18,-11.29,-415,324,-556,0.42,0.03,-0.86,0.30,162.33,-47.33,-133.29,28.47,walking
109,866016,275.82,-537.17,-351.14,-8.82,-101.04,5.68,-415,324,-556,0.36,0.00,-0.87,0.33,162.70,-38.81,-132.72,29.56,276.12,-366.21,-337.71,4.00,-52.00,-23.35,-402,345,-543,0.33,0.00,-0.89,0.32,165.23,-36.32,-135.46,28.48,walking
110,866073,169.98,-583.80,-421.75,-3.44,-79.18,12.31,-402,345,-543,0.27,-0.02,-0.90,0.34,165.51,-28.70,-134.82,29.56,477.11,-325.93,-726.81,22.90,-60.26,-51.95,-402,345,-543,0.28,0.01,-0.92,0.29,171.22,-30.83,-142.56,28.47,walking
111,866129,469.54,-837.52,-885.07,-43.40,-122.76,43.08,-402,345,-543,0.22,-0.00,-0.93,0.30,171.63,-24.51,-142.77,29.55,1187.81,-500.61,-913.21,100.63,-160.28,-78.84,-442,345,-442,0.28,0.07,-0.91,0.30,177.22,-33.15,-142.04,28.50,walking
112,866187,1123.60,-870.00,-963.56,-96.15,-221.32,76.58,-442,345,-442,0.25,0.07,-0.92,0.30,178.16,-30.16,-142.84,29.56,1345.40,-0.43,-138.92,169.89,-250.00,-22.87,-442,345,-442,0.31,0.14,-0.88,0.33,-176.03,-40.21,-140.73,28.48,walking
113,866244,1186.22,-483.64,-309.39,-68.84,-250.00,63.34,-442,345,-442,0.31,0.16,-0.88,0.33,-174.55,-40.71,-140.88,29.55,1042.79,203.19,-18.62,156.34,-211.82,41.94,-442,345,-442,0.36,0.22,-0.84,0.33,-168.40,-48.91,-141.98,28.48,walking
114,866300,938.11,-401.79,-201.42,-31.81,-219.18,79.15,-442,317,-44,0.39,0.26,-0.79,0.41,-171.23,-54.90,-129.75,29.56,863.28,119.32,-390.56,88.15,-153.25,72.43,-442,317,-44,0.40,0.32,-0.75,0.41,-162.72,-60.03,-132.80,28.46,walking
115,866356,846.98,-296.02,-388.98,-45.33,-140.71,70.70,-442,317,-44,0.39,0.33,-0.75,0.43,-161.24,-59.50,-130.69,29.57,797.06,106.63,-350.65,20.53,-157.69,115.33,-442,317,-44,0.39,0.39,-0.72,0.42,-148.47,-62.74,-139.24,28.47,walking
116,866420,515.44,-314.27,-307.31,-23.46,-118.92,37.45,-470,290,57,0.35,0.41,-0.71,0.46,-148.30,-60.68,-132.58,29.57,732.36,-235.72,-290.41,-34.10,-125.54,132.09,-470,290,57,0.33,0.42,-0.69,0.48,-147.59,-60.47,-128.94,28.48,walking
117,866477,318.60,-560.55,-373.35,-25.31,-53.24,-3.27,-470,290,57,0.27,0.42,-0.70,0.52,-148.35,-53.86,-123.38,29.54,514.77,-427.92,-272.77,-52.58,-131.07,118.48,-470,290,57,0.23,0.42,-0.70,0.53,-147.44,-50.66,-121.12,28.50,walking
118,866533,126.16,-570.43,-487.43,-21.00,-106.38,1.02,-466,222,-118,0.13,0.42,-0.76,0.49,-140.65,-37.58,-128.26,29.57,215.58,-246.89,-459.53,4.31,-193.42,75.70,-466,222,-118,0.08,0.45,-0.78,0.44,-133.41,-31.44,-134.60,28.51,walking
119,866589,-86.30,-453.49,-436.65,-3.40,-172.15,19.77,-466,222,-118,-0.02,0.46,-0.79,0.42,-128.54,-20.72,-133.80,29.57,213.62,-183.59,-305.66,44.21,-182.39,6.95,-466,222,-118,0.00,0.52,-0.75,0.41,-120.93,-25.44,-136.94,28.48,walking
120,866647,321.35,-361.08,-342.90,3.55,-172.24,17.57,-466,222,-118,0.00,0.55,-0.72,0.42,-116.24,-27.89,-136.39,29.57,483.03,-65.12,-319.89,67.73,-182.87,-31.59,-470,116,-87,0.04,0.61,-0.67,0.41,-107.00,-34.03,-142.94,28.48,walking
121,866703,285.03,-355.77,-338.38,4.21,-160.87,-11.89,-470,116,-87,0.00,0.62,-0.68,0.40,-105.00,-29.84,-142.08,29.56,279.11,-235.78,-191.10,52.16,-84.29,-72.72,-470,116,-87,0.00,0.64,-0.64,0.43,-102.93,-33.17,-139.26,28.48,walking
122,866787,1078.55,-993.47,-220.46,8.77,37.62,-94.33,-280,51,-98,0.03,0.60,-0.60,0.54,-112.64,-42.72,-125.28,29.57,-511.60,-183.17,-82.28,-13.92,-22.52,50.71,-280,51,-98,-0.07,0.56,-0.69,0.45,-113.11,-24.03,-129.67,28.48,walking
123,866844,-102.78,-544.49,198.55,47.68,6.84,-45.20,-280,51,-98,-0.17,0.49,-0.68,0.52,-118.56,-16.90,-114.54,29.56,463.50,-504.21,-591.49,2.82,26.96,-20.35,-280,51,-98,-0.12,0.52,-0.69,0.49,-117.09,-20.92,-121.33,28.49,walking
124,866899,420.90,-431.88,-533.51,6.30,-16.76,-16.27,-277,30,-114,-0.08,0.55,-0.70,0.45,-114.63,-22.31,-128.71,29.56,320.43,-251.10,-338.81,36.27,-30.30,-37.38,-277,30,-114,-0.05,0.57,-0.70,0.44,-112.32,-24.93,-132.73,28.50,walking
125,866956,517.76,-413.21,-293.76,-2.92,-41.15,-8.43,-277,30,-114,-0.03,0.57,-0.69,0.45,-112.38,-28.41,-132.99,29.56,581.48,-272.64,-269.10,35.05,-27.17,-33.50,-277,30,-114,0.01,0.59,-0.67,0.45,-111.44,-33.49,-134.78,28.49,walking
126,867012,723.14,-579.53,-147.52,12.18,-38.26,-12.52,-277,30,-114,0.02,0.57,-0.66,0.48,-114.93,-35.63,-130.97,29.58,643.74,-279.24,-134.46,23.22,-21.68,-28.19,-300,3,-125,0.07,0.57,-0.66,0.49,-116.34,-40.30,-132.68,28.50,walking
127,867075,679.87,-559.81,-130.00,16.01,-9.85,-26.12,-300,3,-125,0.09,0.54,-0.67,0.50,-122.33,-40.82,-129.72,29.55,793.58,-218.63,-249.57,16.15,-24.24,-21.20,-300,3,-125,0.14,0.54,-0.68,0.48,-121.23,-45.02,-135.95,28.47,walking
128,867130,626.95,-506.65,-212.22,15.39,-53.64,-31.27,-300,3,-125,0.14,0.52,-0.69,0.47,-124.63,-43.51,-135.02,29.54,422.85,-271.79,-207.82,17.06,-47.14,-16.83,-332,-5,-119,0.15,0.51,-0.71,0.46,-125.61,-43.03,-136.75,28.48,walking
129,867186,430.30,-510.74,-247.01,18.91,-44.72,-26.67,-332,-5,-119,0.13,0.49,-0.72,0.47,-128.93,-39.81,-134.02,29.57,386.35,-313.90,-313.35,13.89,-34.74,-22.16,-332,-5,-119,0.12,0.49,-0.74,0.45,-128.33,-38.40,-136.90,28.48,walking
130,867244,354.13,-539.31,-336.49,17.04,-37.32,-26.12,-332,-5,-119,0.09,0.47,-0.75,0.45,-130.35,-34.37,-134.53,29.55,380.80,-273.74,-381.23,16.65,-26.10,-35.45,-361,-7,77,0.10,0.52,-0.72,0.45,-123.66,-37.72,-136.48,28.49,walking
131,867299,450.07,-507.75,-383.48,14.69,-63.74,-24.19,-361,-7,77,0.07,0.54,-0.70,0.47,-120.71,-37.51,-133.72,29.58,377.81,-283.57,-355.41,24.14,-23.30,-48.22,-361,-7,77,0.08,0.57,-0.68,0.47,-116.47,-39.25,-135.71,28.49,walking
132,867355,578.19,-496.77,-281.31,11.45,-29.80,-21.69,-361,-7,77,0.08,0.57,-0.65,0.50,-117.05,-41.52,-131.70,29.54,628.54,-239.75,-263.55,23.45,-4.81,-57.49,-361,-7,77,0.12,0.59,-0.62,0.50,-114.26,-47.66,-133.62,28.50,walking
133,867424,528.99,-487.67,-218.57,10.36,-29.62,-24.22,-346,4,38,0.10,0.56,-0.63,0.53,-119.55,-45.81,-127.66,29.55,541.56,-334.59,-329.96,23.82,-1.37,-72.56,-346,4,38,0.11,0.58,-0.62,0.52,-117.35,-47.51,-130.63,28.48,walking
134,867478,525.21,-675.72,-465.15,-4.91,-25.51,-27.87,-346,4,38,0.09,0.56,-0.65,0.50,-118.19,-42.81,-130.55,29.57,602.54,-437.68,-577.70,40.09,-22.72,-102.21,-346,4,38,0.09,0.59,-0.64,0.48,-113.21,-43.34,-135.37,28.47,walking
135,867535,99.00,-856.02,-640.56,-4.78,-81.13,6.94,-354,-10,36,-0.00,0.57,-0.69,0.44,-113.67,-29.85,-134.94,29.56,458.74,-686.04,-779.79,78.55,-49.41,-144.04,-354,-10,36,-0.01,0.60,-0.67,0.43,-109.02,-30.06,-135.92,28.47,walking
136,867592,-181.82,-1114.69,-894.04,-59.03,-105.69,50.05,-354,-10,36,-0.10,0.58,-0.72,0.37,-108.90,-16.48,-136.68,29.56,892.70,-916.38,-257.81,99.90,-37.92,-112.95,-354,-10,36,-0.09,0.60,-0.65,0.46,-107.15,-26.11,-128.54,28.48,walking
137,867650,812.56,-960.27,23.38,-65.27,-27.85,66.65,-253,-106,-17,-0.07,0.53,-0.69,0.50,-118.42,-25.47,-123.42,29.56,1267.27,133.61,352.78,49.16,41.60,-49.40,-253,-106,-17,0.04,0.53,-0.65,0.54,-123.34,-39.28,-121.41,28.48,walking
138,867705,1301.64,-861.76,-200.20,-46.79,24.00,119.12,-253,-106,-17,0.08,0.48,-0.68,0.55,-133.77,-39.71,-119.44,29.55,1083.68,409.79,83.92,0.74,15.72,12.63,-253,-106,-17,0.21,0.49,-0.65,0.54,-135.51,-53.87,-124.39,28.47,walking
139,867761,1064.51,-472.53,-378.97,-17.59,31.12,115.04,-244,-118,41,0.23,0.47,-0.66,0.54,-140.63,-53.44,-122.39,29.54,1022.58,552.49,-142.88,-76.62,13.09,116.61,-244,-118,41,0.32,0.49,-0.65,0.49,-134.54,-63.02,-133.97,28.46,walking
140,867818,1031.80,-295.96,-433.72,1.42,45.15,120.86,-244,-118,41,0.31,0.48,-0.66,0.50,-138.00,-61.48,-131.08,29.55,1043.82,531.37,-236.76,-124.11,-28.16,184.71,-244,-118,41,0.36,0.49,-0.65,0.45,-128.12,-65.93,-146.39,28.48,walking
141,867876,1092.04,-111.45,-436.16,13.60,54.57,84.94,-244,-118,41,0.36,0.49,-0.65,0.45,-128.23,-66.32,-145.20,29.56,1079.35,446.35,-224.67,-151.03,-45.38,248.94,-117,-116,-118,0.45,0.39,-0.70,0.39,-145.45,-69.73,-146.02,28.49,walking
142,867931,1042.05,-187.62,-541.14,7.77,57.42,29.22,-117,-116,-118,0.47,0.34,-0.72,0.37,-155.58,-69.01,-142.46,29.56,1067.87,-74.16,-297.91,-151.69,-85.21,249.99,-117,-116,-118,0.47,0.27,-0.77,0.34,-168.18,-64.88,-139.38,28.47,walking
143,867988,399.72,-727.84,-658.81,-7.37,18.49,40.58,-117,-116,-118,0.40,0.20,-0.82,0.36,-175.09,-53.27,-135.14,29.54,635.68,-251.59,-350.59,-92.47,-43.47,226.81,-305,-104,-119,0.37,0.19,-0.83,0.37,-176.14,-49.02,-133.18,28.47,walking
144,868045,-951.60,-655.03,-1021.00,33.03,-19.39,15.63,-305,-104,-119,0.24,0.18,-0.87,0.40,-171.09,-33.96,-133.69,29.57,104.92,-233.58,-266.48,87.72,-117.94,-57.25,-305,-104,-119,0.17,0.22,-0.86,0.42,-164.54,-28.76,-131.98,28.48,walking
145,868128,922.91,-755.55,-452.45,-10.99,-92.44,-55.77,-358,-106,-101,0.21,0.32,-0.79,0.47,-156.12,-39.80,-127.37,29.55,164.61,-456.73,-599.18,2.01,79.88,-22.49,-358,-106,-101,0.18,0.31,-0.82,0.44,-154.53,-34.69,-131.33,28.49,walking
146,868202,673.34,-686.89,-273.25,-57.49,136.51,-75.47,-358,-106,-101,0.27,0.31,-0.76,0.49,-162.27,-46.22,-121.73,29.55,773.01,115.91,-3.60,14.81,103.99,-78.95,-358,-106,-101,0.38,0.36,-0.71,0.47,-161.80,-61.50,-123.29,28.49,walking
147,868259,937.99,-346.37,-258.91,46.60,19.66,-45.84,-348,-102,-125,0.40,0.37,-0.70,0.47,-161.14,-64.20,-124.03,29.55,1136.60,-260.07,-469.60,54.69,-27.74,-67.15,-348,-102,-125,0.40,0.39,-0.70,0.44,-152.22,-65.57,-133.07,28.48,walking
148,868315,710.94,-527.89,-232.97,17.79,-75.05,-54.89,-348,-102,-125,0.37,0.38,-0.71,0.45,-154.03,-61.46,-130.91,29.57,687.99,-316.77,-156.68,35.67,-22.77,-56.17,-348,-102,-125,0.38,0.38,-0.70,0.46,-155.52,-63.03,-128.86,28.48,walking
149,868380,623.96,-613.10,-186.04,25.04,-20.46,-55.61,-387,-77,-109,0.35,0.36,-0.71,0.49,-160.58,-58.92,-121.93,29.54,535.40,-233.15,-300.42,16.85,-18.20,-42.04,-415,-58,-121,0.32,0.47,-0.76,0.33,-126.19,-52.01,-160.04,28.49,walking
150,868578,636.96,-499.88,-328.61,16.75,-17.30,-59.81,-415,-58,-121,0.29,0.45,-0.74,0.40,-133.98,-52.13,-146.76,29.56,464.23,-356.75,-404.11,11.97,3.14,-68.92,-442,-89,70,0.16,0.56,-0.66,0.48,-119.31,-47.74,-136.84,28.51,walking
151,868720,261.29,-637.15,-445.68,-3.37,-20.65,-54.37,-442,-89,70,0.09,0.54,-0.70,0.47,-121.14,-38.49,-134.31,29.55,435.73,-488.77,-535.10,22.80,-12.47,-104.97,-470,-41,67,0.08,0.56,-0.69,0.46,-117.22,-38.41,-136.35,28.48,walking
152,868777,89.60,-894.17,-516.42,-16.62,-67.34,-14.51,-470,-41,67,-0.01,0.54,-0.71,0.45,-118.11,-28.33,-132.95,29.54,244.14,-731.99,-826.42,46.32,-46.91,-151.39,-470,-41,67,-0.03,0.57,-0.70,0.43,-112.60,-26.47,-135.05,28.47,walking
153,868833,-270.45,-995.54,-998.35,-70.63,-89.85,37.06,-470,-41,67,-0.11,0.56,-0.74,0.36,-111.10,-13.71,-137.85,29.55,491.39,-959.41,146.24,60.25,-45.29,-140.09,-470,-41,67,-0.13,0.57,-0.67,0.47,-110.08,-21.23,-124.65,28.49,walking
154,868889,570.07,-1102.72,107.06,-63.45,57.40,71.83,-238,-118,38,-0.12,0.48,-0.69,0.53,-122.24,-20.24,-116.60,29.57,1342.10,-139.59,493.47,-7.34,142.07,-79.99,-238,-118,38,0.00,0.49,-0.64,0.60,-129.74,-35.70,-111.00,28.47,walking
155,868947,1419.62,-964.54,-263.06,-60.85,103.31,134.65,-238,-118,38,0.06,0.44,-0.67,0.60,-139.62,-37.27,-109.93,29.55,1170.59,376.22,69.64,-25.67,36.28,2.78,-238,-118,38,0.19,0.47,-0.63,0.59,-141.71,-52.26,-113.03,28.47,walking
156,869003,1242.74,-522.83,-399.17,-21.83,55.37,137.35,-192,-120,43,0.21,0.45,-0.65,0.58,-146.71,-52.23,-112.78,29.56,1128.78,710.08,15.81,-82.02,25.77,122.63,-192,-120,43,0.31,0.47,-0.62,0.54,-145.38,-63.74,-119.29,28.47,walking
157,869059,1159.24,-282.59,-397.34,9.93,39.23,127.02,-192,-120,43,0.30,0.47,-0.63,0.54,-145.65,-62.65,-119.67,29.53,1002.44,615.91,-117.25,-119.60,-26.32,208.58,-192,-120,43,0.36,0.49,-0.62,0.49,-136.74,-68.73,-133.67,28.49,walking
158,869115,1179.32,-87.22,-351.44,29.68,46.97,98.14,-244,-118,-119,0.40,0.44,-0.65,0.47,-147.85,-69.71,-130.37,29.54,1146.30,429.38,-154.30,-139.86,-44.82,249.99,-244,-118,-119,0.47,0.38,-0.69,0.41,-152.00,-71.98,-138.82,28.50,walking
159,869187,1028.44,-105.83,-554.14,17.97,32.82,39.35,-244,-118,-119,0.46,0.38,-0.71,0.38,-146.39,-69.23,-147.43,29.56,701.54,-323.91,-318.18,-93.86,-114.60,249.99,-244,-118,-119,0.41,0.32,-0.77,0.38,-158.36,-59.91,-139.75,28.50,walking
160,869243,-139.34,-463.50,-692.50,56.20,21.10,80.39,-244,-118,-123,0.28,0.29,-0.83,0.38,-158.31,-43.12,-139.69,29.54,755.37,-714.48,-363.65,15.47,102.26,-114.21,-253,-78,40,0.29,0.59,-0.40,0.64,-144.56,-80.40,-93.61,28.49,walking
161,869442,1144.41,-686.83,-236.02,10.60,100.54,-70.54,-253,-78,40,0.31,0.55,-0.44,0.64,-155.27,-77.02,-88.81,29.53,1034.48,356.20,-71.11,28.83,65.96,-73.97,-253,-78,40,0.39,0.57,-0.41,0.60,169.28,-87.11,-57.70,28.50,walking
162,869515,850.65,-740.17,-231.14,22.54,-45.66,-48.87,-253,-120,107,0.28,0.56,-0.49,0.60,-132.80,-72.84,-114.27,29.55,661.80,-267.09,-118.10,34.07,-32.36,-58.18,-253,-120,107,0.28,0.57,-0.49,0.59,-129.60,-72.25,-117.23,28.48,walking
163,869571,695.37,-569.03,-282.41,28.18,-18.47,-49.34,-253,-120,107,0.24,0.56,-0.53,0.59,-128.12,-66.55,-118.82,29.53,797.30,-269.53,-265.62,23.47,-28.41,-44.01,-253,-120,107,0.25,0.58,-0.53,0.57,-122.27,-66.93,-125.46,28.48,walking
164,869627,708.80,-515.87,-277.34,22.97,-45.43,-58.75,-253,-85,-121,0.27,0.52,-0.61,0.53,-130.39,-62.04,-129.12,29.53,573.73,-251.59,-236.69,21.70,-57.58,-33.31,-253,-85,-121,0.30,0.49,-0.67,0.47,-132.99,-59.53,-137.43,28.47,walking
165,869716,398.99,-525.82,-304.75,17.59,-39.73,-52.40,-253,-85,-121,0.24,0.40,-0.77,0.44,-143.67,-46.13,-136.28,29.53,463.87,-295.72,-264.28,12.99,-13.14,-37.81,-410,-87,38,0.23,0.44,-0.73,0.46,-139.43,-48.59,-134.49,28.47,walking
166,869772,499.08,-487.67,-321.29,19.96,-13.02,-59.91,-410,-87,38,0.21,0.45,-0.72,0.48,-138.00,-48.03,-131.32,29.52,415.34,-286.50,-378.91,14.82,-8.74,-44.94,-410,-87,38,0.20,0.48,-0.71,0.47,-132.65,-47.34,-135.01,28.48,walking
167,869828,325.56,-522.09,-347.60,16.33,-28.54,-54.75,-410,-87,38,0.15,0.48,-0.72,0.48,-132.22,-42.62,-131.86,29.52,257.26,-289.49,-292.85,19.63,4.24,-63.51,-459,-116,0,0.14,0.48,-0.73,0.47,-130.71,-40.89,-133.65,28.48,walking
168,869884,387.88,-515.75,-238.83,11.41,-31.04,-43.04,-459,-116,0,0.12,0.47,-0.72,0.49,-133.00,-39.48,-129.29,29.55,572.39,-399.96,-483.28,22.78,-20.48,-94.05,-459,-116,0,0.15,0.51,-0.71,0.45,-125.67,-43.01,-137.76,28.49,walking
169,869962,360.96,-755.07,-499.51,-16.49,-46.70,-29.45,-459,-116,0,0.10,0.49,-0.74,0.45,-127.80,-36.22,-135.31,29.52,429.38,-595.28,-738.04,39.02,-31.85,-131.77,-454,-104,-15,0.09,0.51,-0.74,0.43,-123.32,-34.48,-138.71,28.48,walking
170,870019,-192.63,-777.95,-854.61,-28.79,-93.70,15.17,-454,-104,-15,-0.01,0.50,-0.78,0.37,-122.16,-20.80,-140.89,29.52,330.26,-1101.56,-777.40,95.83,-56.22,-160.79,-454,-104,-15,-0.05,0.52,-0.75,0.41,-118.89,-20.99,-135.11,28.48,walking
171,870076,403.50,-900.39,-383.91,-76.99,-29.91,68.79,-454,-104,-15,-0.06,0.49,-0.76,0.43,-122.68,-19.03,-131.58,29.56,1134.28,-390.08,18.55,68.86,56.76,-85.72,-437,-90,-106,0.04,0.51,-0.70,0.50,-124.35,-34.38,-127.09,28.48,walking
172,870269,1100.04,-298.03,-565.25,6.89,26.95,127.24,-239,-116,-60,0.44,0.14,-0.81,0.35,171.92,-55.06,-129.17,29.52,1031.74,546.45,-325.07,-89.27,-31.19,191.62,-239,-116,-60,0.45,0.21,-0.81,0.31,-173.53,-59.67,-141.34,28.48,walking
173,870347,1159.55,-153.56,-420.17,21.13,37.52,73.15,-172,-116,-111,0.47,0.24,-0.78,0.33,-170.65,-64.05,-140.30,29.55,1187.07,396.06,-188.72,-141.38,-52.43,249.99,-172,-116,-111,0.50,0.24,-0.79,0.29,-167.62,-66.08,-147.90,28.46,walking
174,870404,984.50,-283.26,-509.03,16.24,37.97,15.50,-172,-116,-111,0.48,0.25,-0.79,0.30,-165.61,-64.74,-147.09,29.55,730.96,-324.46,-347.84,-115.29,-112.11,249.99,-172,-116,-111,0.43,0.20,-0.82,0.31,-173.22,-56.55,-141.59,28.51,walking
175,870557,1035.64,-809.02,-471.56,-15.90,-80.51,-49.75,-195,-120,-108,0.29,0.27,-0.80,0.46,-166.84,-45.10,-125.57,29.53,-290.47,-810.18,-869.45,29.15,7.00,-27.18,-195,-120,-108,0.20,0.23,-0.84,0.44,-164.88,-33.26,-129.88,28.50,walking
176,870654,1346.25,-132.63,-40.34,0.84,70.48,-47.38,-226,-174,-101,0.50,0.34,-0.69,0.39,-163.74,-74.08,-133.44,29.54,1142.21,36.25,-46.14,35.46,32.28,-63.00,-226,-174,-101,0.54,0.36,-0.66,0.38,-156.04,-79.72,-140.18,28.49,walking
177,870708,848.14,-720.09,-563.96,31.96,-9.77,-61.23,-226,-174,-101,0.47,0.35,-0.70,0.40,-158.39,-70.93,-136.70,29.54,652.47,-291.14,-357.54,23.03,6.13,-54.18,-239,-167,-71,0.44,0.37,-0.72,0.39,-152.40,-67.52,-140.89,28.49,walking
178,870763,639.22,-474.98,-189.39,27.82,3.92,-47.57,-239,-167,-71,0.42,0.35,-0.72,0.43,-159.86,-64.87,-131.22,29.55,675.84,-354.86,-183.47,25.70,-4.13,-37.45,-239,-167,-71,0.41,0.35,-0.71,0.44,-161.81,-64.25,-127.82,28.45,walking
179,870820,574.34,-532.29,-308.65,27.46,-17.67,-50.58,-239,-167,-71,0.37,0.34,-0.73,0.46,-162.01,-59.18,-126.24,29.53,667.11,-225.04,-258.67,18.47,-29.46,-34.04,-415,-157,-71,0.37,0.39,-0.72,0.45,-151.36,-61.21,-133.19,28.50,walking
180,870890,618.90,-494.75,-292.72,16.01,-56.40,-40.28,-415,-157,-71,0.33,0.39,-0.72,0.46,-150.93,-57.33,-131.32,29.54,525.33,-288.33,-295.41,23.71,-48.29,-28.71,-415,-157,-71,0.31,0.40,-0.73,0.45,-147.01,-55.57,-134.11,28.47,walking
181,870946,521.30,-519.47,-266.85,14.39,-31.75,-37.70,-415,-157,-71,0.28,0.39,-0.74,0.47,-149.50,-52.15,-129.85,29.53,538.45,-271.30,-289.18,12.34,-15.14,-29.53,-442,-120,-91,0.29,0.40,-0.74,0.46,-146.66,-52.91,-132.87,28.47,walking
182,871003,552.31,-522.09,-332.52,15.16,-22.57,-38.30,-442,-120,-91,0.27,0.40,-0.74,0.47,-147.65,-50.31,-130.80,29.54,509.16,-258.91,-347.60,18.21,-28.57,-33.43,-442,-120,-91,0.27,0.41,-0.75,0.45,-143.45,-50.28,-135.43,28.49,walking
183,871061,313.96,-523.56,-413.15,13.03,-54.69,-34.00,-442,-120,-91,0.21,0.40,-0.77,0.45,-142.95,-42.76,-134.75,29.53,246.22,-315.06,-373.90,22.64,-18.65,-46.81,-466,-116,-111,0.17,0.41,-0.79,0.43,-140.33,-38.60,-137.31,28.49,walking
184,871117,197.75,-506.53,-282.84,14.63,-50.34,-30.94,-466,-116,-111,0.12,0.39,-0.79,0.45,-141.93,-33.10,-132.74,29.53,373.96,-341.67,-294.74,20.70,-4.50,-75.45,-466,-116,-111,0.14,0.41,-0.78,0.45,-140.54,-36.27,-133.03,28.49,walking
185,871174,399.60,-574.16,-323.06,-2.43,-28.37,-28.43,-466,-116,-111,0.13,0.40,-0.78,0.47,-142.05,-34.73,-130.49,29.52,430.73,-502.69,-559.02,30.26,-16.75,-105.31,-466,-116,-111,0.13,0.42,-0.78,0.45,-138.52,-34.89,-134.16,28.48,walking
186,871231,54.99,-971.44,-781.13,-18.33,-70.77,32.88,-387,-104,-339,0.05,0.37,-0.85,0.37,-140.27,-21.46,-140.31,29.52,568.36,-779.05,-960.88,85.99,-48.09,-146.51,-387,-104,-339,0.06,0.40,-0.84,0.36,-136.99,-22.41,-142.49,28.48,walking
187,871288,293.15,-1039.55,-922.85,-76.30,-84.34,72.09,-387,-104,-339,0.01,0.36,-0.87,0.33,-139.32,-14.86,-144.63,29.53,1339.05,-259.52,-158.20,103.26,-41.35,-89.02,-387,-104,-339,0.11,0.41,-0.83,0.37,-136.81,-28.57,-143.29,28.48,walking
188,871345,1205.75,-899.23,-316.35,-50.09,-67.18,69.93,-327,-3,-445,0.14,0.39,-0.83,0.37,-140.83,-31.48,-143.31,29.52,1394.65,149.60,-64.45,97.66,-21.51,-24.67,-327,-3,-445,0.25,0.41,-0.80,0.35,-137.54,-43.34,-149.98,28.48,walking
189,871401,1287.17,-427.31,-394.04,-34.16,-38.95,114.47,-327,-3,-445,0.28,0.37,-0.82,0.33,-143.17,-45.24,-151.47,29.52,994.02,506.53,-256.90,43.88,-19.13,82.83,-327,-3,-445,0.37,0.38,-0.81,0.26,-136.71,-51.90,-166.46,28.48,walking
190,871457,1149.78,-342.53,-501.95,-7.38,-66.59,108.47,-327,-3,-445,0.36,0.33,-0.83,0.26,-144.72,-51.29,-161.94,29.52,984.68,604.31,-261.47,-3.86,-46.99,147.93,-300,-61,-435,0.42,0.32,-0.83,0.19,-139.89,-55.35,-175.60,28.50,walking
191,871514,1001.40,-182.31,-475.71,14.18,-37.99,89.83,-300,-61,-435,0.42,0.28,-0.83,0.21,-148.56,-55.81,-168.55,29.52,1064.76,533.57,-256.41,-38.81,-72.33,214.01,-300,-61,-435,0.46,0.26,-0.83,0.16,-147.68,-58.61,-176.00,28.46,walking
192,871572,1099.73,-178.22,-374.45,33.96,-36.74,45.36,-300,-61,-435,0.47,0.24,-0.83,0.20,-153.97,-60.73,-168.30,29.53,1045.29,224.98,-114.62,-38.10,-118.64,249.99,-249,-311,-435,0.50,0.19,-0.83,0.18,-163.98,-62.76,-164.65,28.49,walking
193,871628,820.13,-424.68,-280.03,52.14,-100.78,26.27,-249,-311,-435,0.47,0.16,-0.84,0.23,-174.86,-59.81,-151.97,29.54,718.02,-348.21,491.09,18.89,-250.00,228.98,-249,-311,-435,0.50,0.05,-0.78,0.37,149.63,-55.01,-113.22,28.48,walking
194,871708,-952.39,-583.01,-127.20,79.09,-250.00,36.43,-199,-243,-543,0.37,-0.03,-0.82,0.42,153.28,-36.25,-116.62,29.55,-1027.77,-374.27,-1012.27,42.57,-189.48,3.97,-199,-243,-543,0.25,-0.07,-0.88,0.40,159.61,-22.34,-127.39,28.48,walking
195,871764,-128.30,-481.14,-511.54,-44.08,-47.61,-19.97,-199,-243,-543,0.18,-0.12,-0.91,0.36,159.74,-14.27,-134.52,29.54,429.02,-128.36,-38.02,-16.06,104.13,-25.80,-199,-243,-543,0.52,-0.05,-0.82,0.23,145.21,-55.71,-129.44,28.47,walking
196,871854,598.08,-1262.02,-191.22,-5.96,123.89,-34.46,-138,-215,-867,0.53,-0.11,-0.79,0.29,129.82,-50.79,-114.14,29.54,666.56,-294.98,-627.62,12.15,21.23,-67.70,-138,-215,-867,0.51,-0.10,-0.82,0.24,138.73,-52.59,-126.49,28.48,walking
197,871911,748.11,-327.39,-393.74,-11.09,-40.87,-42.79,-138,-215,-867,0.51,-0.08,-0.83,0.21,144.05,-53.92,-133.12,29.53,430.05,-88.68,-243.59,24.41,-12.18,-48.75,-138,-215,-867,0.51,-0.06,-0.84,0.17,150.97,-56.47,-140.69,28.47,walking
198,871968,579.77,-490.05,-164.98,4.31,-11.56,-14.35,-243,-229,-823,0.51,-0.06,-0.82,0.23,144.16,-54.88,-129.75,29.54,584.72,-306.40,-160.83,22.41,-32.79,-34.94,-243,-229,-823,0.53,-0.02,-0.81,0.25,144.77,-58.18,-125.52,28.49,walking
199,872058,601.32,-544.19,-198.00,3.56,-35.81,-14.83,-243,-229,-823,0.52,-0.04,-0.81,0.27,141.88,-54.88,-121.91,29.53,730.96,-239.32,-205.26,14.75,-37.45,-26.58,-239,-181,-853,0.53,-0.02,-0.81,0.25,144.98,-58.51,-125.86,28.47,walking
200,872174,475.04,-528.26,-240.48,-0.04,-69.68,-9.33,-239,-181,-853,0.44,-0.11,-0.83,0.32,142.15,-40.97,-123.58,29.51,383.67,-345.15,-228.64,13.32,-56.37,-13.89,-226,-174,-985,0.44,-0.12,-0.84,0.30,142.60,-41.91,-126.18,28.47,walking
201,872237,436.71,-507.14,-233.34,-3.85,-51.24,-9.61,-226,-174,-985,0.44,-0.13,-0.84,0.30,140.87,-40.96,-125.03,29.51,470.21,-263.18,-245.36,7.04,-50.78,-16.62,-226,-174,-985,0.45,-0.11,-0.84,0.27,142.81,-44.28,-128.81,28.48,walking
202,872294,520.02,-500.61,-305.11,-3.05,-57.22,-6.76,-226,-174,-985,0.44,-0.12,-0.84,0.27,142.44,-43.08,-128.68,29.51,396.12,-311.77,-292.79,8.03,-45.97,-20.68,-231,-118,-932,0.44,-0.12,-0.85,0.26,144.50,-43.12,-131.88,28.48,walking
203,872350,256.77,-532.04,-340.39,1.70,-46.99,-4.50,-231,-118,-932,0.40,-0.15,-0.86,0.29,143.22,-36.92,-130.42,29.54,271.06,-366.33,-372.01,8.98,-33.74,-34.19,-231,-118,-932,0.38,-0.15,-0.87,0.27,144.79,-35.20,-133.44,28.48,walking
204,872407,84.17,-524.96,-446.11,-0.41,-93.79,4.88,-231,-118,-932,0.31,-0.18,-0.88,0.30,145.46,-26.40,-134.67,29.52,317.02,-346.01,-517.46,26.77,-63.59,-63.25,-231,-118,-932,0.31,-0.17,-0.90,0.26,148.62,-27.64,-139.66,28.46,walking
205,872472,687.50,-755.19,-987.49,-28.56,-145.58,43.80,-251,-114,-983,0.27,-0.18,-0.92,0.24,150.86,-23.74,-144.47,29.50,1129.39,-413.02,-1159.48,98.34,-155.50,-91.89,-251,-114,-983,0.28,-0.12,-0.93,0.21,157.03,-27.34,-148.48,28.47,walking
206,872530,360.53,-1133.61,-1312.93,-88.70,-227.00,89.84,-251,-114,-983,0.19,-0.16,-0.94,0.22,156.66,-16.61,-149.76,29.53,1305.66,-785.71,-898.56,142.78,-182.19,-71.78,-251,-114,-983,0.23,-0.11,-0.93,0.25,160.26,-22.46,-146.51,28.47,walking
207,872586,1309.02,-909.73,-450.44,-113.54,-184.60,77.35,-248,-118,-953,0.27,-0.11,-0.93,0.23,158.55,-26.60,-146.51,29.51,1231.99,319.09,-64.88,127.59,-146.49,12.40,-248,-118,-953,0.38,-0.03,-0.91,0.17,165.12,-43.20,-153.38,28.49,walking
208,872656,1229.43,-432.98,-367.07,-63.43,-146.45,86.71,-248,-118,-953,0.40,-0.05,-0.90,0.17,161.82,-44.94,-150.96,29.53,872.80,486.94,-266.54,89.70,-124.60,65.04,-248,-118,-953,0.43,-0.00,-0.90,0.11,171.19,-49.82,-161.40,28.48,walking
209,872713,932.68,-222.96,-453.12,-41.50,-129.30,71.70,-456,98,-988,0.42,-0.01,-0.89,0.15,168.17,-48.89,-155.89,29.51,880.43,364.50,-384.22,10.27,-110.05,119.93,-456,98,-988,0.43,0.02,-0.89,0.11,173.75,-50.86,-162.31,28.48,walking
210,872770,695.62,-178.16,-351.56,-26.17,-60.13,39.39,-456,98,-988,0.44,0.02,-0.89,0.15,170.69,-51.69,-156.43,29.53,875.98,148.74,-237.30,-64.87,-89.14,145.50,-456,98,-988,0.47,0.02,-0.88,0.13,171.11,-55.03,-158.90,28.48,walking
211,872827,655.70,-391.97,-417.11,-15.84,-2.32,-11.72,-464,210,-932,0.46,0.01,-0.87,0.18,164.75,-53.55,-148.40,29.51,952.64,-94.24,-345.95,-120.76,-75.27,171.51,-464,210,-932,0.47,-0.02,-0.87,0.17,161.59,-53.57,-148.54,28.48,walking
212,872883,594.30,-673.58,-538.45,-19.77,14.10,-36.88,-464,210,-932,0.45,-0.04,-0.87,0.22,156.42,-49.05,-140.22,29.52,472.35,-438.54,-476.99,-90.08,-128.72,152.01,-464,210,-932,0.39,-0.08,-0.89,0.24,154.41,-40.22,-140.64,28.49,walking
213,872940,-159.36,-410.58,-719.67,2.63,-68.60,-27.03,-375,208,-961,0.27,-0.11,-0.93,0.24,158.22,-27.21,-146.10,29.55,-90.09,-171.02,-565.00,3.02,-166.93,40.72,-375,208,-961,0.16,-0.12,-0.96,0.21,161.82,-15.10,-152.64,28.51,walking
214,872998,-203.43,-471.13,-510.25,17.31,-196.52,15.98,-375,208,-961,0.06,-0.14,-0.95,0.26,162.87,-2.33,-149.57,29.52,296.20,-123.72,-481.38,74.26,-211.62,-66.49,-375,208,-961,0.12,-0.09,-0.97,0.21,167.14,-11.60,-153.71,28.49,walking
215,873053,359.80,-344.79,-605.83,-7.06,-194.76,-36.16,-375,208,-961,0.13,-0.06,-0.97,0.21,170.54,-12.78,-154.88,29.54,373.05,-522.58,-669.74,57.40,-106.06,-96.95,-361,317,-880,0.17,-0.01,-0.96,0.24,173.81,-18.10,-151.33,28.51,walking
216,873110,154.54,-737.67,-1071.84,-3.13,-10.42,-15.42,-361,317,-880,0.15,-0.01,-0.96,0.24,174.13,-16.74,-151.43,29.52,413.57,-404.60,-90.70,44.01,-58.46,-12.47,-361,317,-880,0.24,0.01,-0.93,0.29,172.78,-26.68,-142.89,28.47,walking
217,873168,-54.99,-950.20,-216.92,65.50,29.88,-72.40,-361,317,-880,0.23,-0.00,-0.90,0.37,169.54,-24.12,-133.55,29.52,300.54,-520.57,-747.25,22.70,44.17,-31.03,-331,375,-769,0.27,0.01,-0.92,0.30,170.66,-29.83,-141.38,28.47,walking
218,873224,352.84,-498.23,-643.07,0.67,21.72,-48.46,-331,375,-769,0.28,0.02,-0.92,0.27,172.45,-31.88,-145.57,29.53,404.79,-288.27,-337.34,37.99,10.49,-47.65,-331,375,-769,0.32,0.04,-0.91,0.26,173.70,-37.05,-146.48,28.49,walking
219,873280,745.79,-411.74,-193.48,51.67,-54.04,-36.73,-331,375,-769,0.38,0.07,-0.88,0.27,173.41,-44.60,-143.14,29.52,551.45,-342.16,-273.44,46.76,-35.65,-40.63,-331,375,-769,0.40,0.08,-0.87,0.27,174.38,-47.36,-143.34,28.48,walking
220,873337,653.32,-479.74,-54.08,23.54,-33.96,-26.56,-285,401,-767,0.44,0.08,-0.84,0.29,169.23,-52.78,-136.74,29.53,538.21,-279.85,-177.31,21.48,-5.13,-34.00,-285,401,-767,0.47,0.09,-0.84,0.27,170.08,-56.51,-139.35,28.50,walking
221,873392,683.84,-513.85,-154.72,14.25,-8.09,-27.43,-285,401,-767,0.49,0.08,-0.83,0.27,165.43,-57.93,-135.31,29.55,465.39,-304.26,-327.27,15.46,-25.67,-30.99,-466,341,-759,0.44,0.08,-0.85,0.27,170.27,-52.74,-140.30,28.46,walking
222,873469,598.57,-521.61,-261.17,16.11,-49.80,-19.71,-466,341,-759,0.43,0.07,-0.85,0.30,167.17,-50.90,-135.39,29.52,423.28,-293.58,-386.78,20.55,-49.09,-33.92,-466,341,-759,0.41,0.08,-0.87,0.28,172.19,-48.20,-141.01,28.48,walking
223,873526,481.02,-516.30,-313.42,7.51,-54.63,-20.45,-466,341,-759,0.39,0.06,-0.87,0.30,170.16,-45.33,-137.38,29.52,406.80,-292.18,-382.32,16.62,-32.17,-39.95,-466,341,-759,0.37,0.08,-0.88,0.28,173.88,-44.42,-141.80,28.49,walking
224,873584,562.01,-517.70,-299.13,6.17,-24.57,-26.43,-464,428,-555,0.38,0.07,-0.86,0.32,170.05,-44.45,-134.63,29.50,536.13,-239.87,-331.97,11.25,-8.54,-44.48,-464,428,-555,0.39,0.09,-0.86,0.30,173.38,-47.30,-138.29,28.48,walking
225,873640,671.39,-480.41,-290.41,4.02,-9.20,-32.83,-464,428,-555,0.41,0.09,-0.85,0.32,171.09,-48.86,-134.19,29.52,490.23,-255.31,-377.14,10.51,-1.88,-44.74,-464,428,-555,0.40,0.11,-0.86,0.30,175.56,-49.41,-139.25,28.46,walking
226,873696,521.67,-536.62,-347.35,6.56,-12.53,-28.38,-470,427,-543,0.39,0.10,-0.85,0.33,172.50,-47.00,-134.07,29.53,343.44,-305.24,-365.84,12.76,3.71,-56.72,-470,427,-543,0.37,0.11,-0.86,0.32,175.72,-45.27,-137.44,28.47,walking
227,873752,188.11,-519.17,-330.02,-0.66,-5.35,-25.56,-470,427,-543,0.32,0.08,-0.87,0.36,173.06,-38.19,-133.14,29.53,351.26,-285.64,-438.84,10.73,25.20,-80.80,-470,427,-543,0.32,0.10,-0.88,0.32,177.40,-39.51,-138.85,28.50,walking
228,873807,393.19,-539.18,-366.70,-10.82,5.23,-23.91,-407,428,-521,0.32,0.09,-0.88,0.34,175.36,-37.93,-135.55,29.51,545.90,-312.81,-358.95,25.35,6.94,-112.65,-407,428,-521,0.35,0.12,-0.87,0.32,179.35,-43.31,-139.15,28.47,walking
229,873864,231.93,-952.76,-500.37,-22.31,-39.08,9.04,-407,428,-521,0.28,0.08,-0.88,0.36,175.56,-34.05,-133.93,29.50,485.11,-740.97,-778.50,44.26,-23.07,-172.60,-407,428,-521,0.28,0.12,-0.89,0.34,-178.54,-35.78,-138.11,28.48,walking
230,873920,-205.99,-1143.80,-887.08,-73.00,-74.93,34.61,-407,428,-521,0.18,0.08,-0.92,0.35,-178.97,-23.07,-138.92,29.52,1039.92,-295.65,99.12,39.12,51.72,-93.89,-441,456,-551,0.48,0.21,-0.78,0.33,-178.39,-63.88,-134.53,28.49,walking
231,873996,983.40,-1071.96,83.07,-56.39,45.01,85.02,-441,456,-551,0.49,0.14,-0.77,0.38,162.47,-59.50,-116.75,29.52,1004.27,419.92,8.18,-8.33,21.36,10.96,-280,317,-502,0.66,0.24,-0.71,0.10,-93.20,-77.46,121.34,28.48,walking
232,874086,1018.80,-413.76,-378.72,-20.00,25.97,120.00,-280,317,-502,0.63,0.18,-0.74,0.17,-159.67,-81.23,-170.62,29.52,1085.57,577.94,-289.67,-101.98,-17.35,157.04,-280,317,-502,0.62,0.19,-0.76,0.08,-129.63,-75.73,151.71,28.48,walking
233,874177,1011.47,-204.65,-489.62,9.25,48.32,96.74,-354,-78,-502,0.59,0.17,-0.77,0.14,-157.80,-75.22,-175.86,29.52,1053.77,409.55,-259.64,-143.66,-23.93,218.75,-354,-78,-502,0.60,0.16,-0.78,0.12,-157.56,-74.88,-178.97,28.48,walking
234,874234,1065.37,-166.44,-479.68,13.79,66.69,47.84,-354,-78,-502,0.58,0.16,-0.78,0.17,-168.44,-73.90,-164.17,29.53,1197.27,189.39,-230.41,-165.87,-40.25,249.99,-354,-78,-502,0.58,0.12,-0.79,0.16,-179.06,-72.99,-157.35,28.47,walking
235,874290,844.60,-473.88,-519.59,1.69,54.82,-5.23,-354,-78,-502,0.55,0.11,-0.80,0.21,171.78,-68.32,-144.35,29.52,512.94,-373.72,-618.53,-122.28,-84.92,249.99,-468,-118,-531,0.46,0.06,-0.85,0.25,167.49,-53.92,-141.19,28.48,walking
236,874348,-721.86,-450.56,-1163.45,42.42,91.59,26.45,-468,-118,-531,0.36,0.04,-0.89,0.28,169.86,-40.88,-140.95,29.52,-715.45,-217.35,-768.62,-8.09,-13.78,52.61,-468,-118,-531,0.22,0.01,-0.93,0.29,172.63,-24.96,-143.86,28.48,walking
237,874470,882.63,-1149.90,-1063.23,3.03,14.24,2.90,-293,307,-550,0.35,0.03,-0.89,0.30,168.19,-39.64,-138.54,29.51,645.26,-567.57,-1003.60,57.87,-3.81,-45.42,-293,307,-550,0.33,0.04,-0.90,0.27,172.54,-38.80,-143.80,28.47,walking
238,874528,154.79,-683.41,-790.22,-28.61,64.03,-68.35,-293,307,-550,0.29,0.03,-0.92,0.27,172.90,-33.63,-145.28,29.53,1147.58,174.56,-103.64,19.67,115.38,-88.64,-415,321,-529,0.43,0.08,-0.87,0.23,175.27,-51.47,-148.49,28.48,walking
239,874583,1009.83,-337.10,41.81,41.34,13.57,-44.08,-415,321,-529,0.50,0.10,-0.82,0.27,167.16,-60.47,-135.29,29.51,811.58,-354.31,-175.11,54.77,-16.37,-57.43,-415,321,-529,0.51,0.11,-0.80,0.29,165.64,-62.47,-130.99,28.48,walking
240,874640,613.89,-539.43,-234.07,29.12,-33.07,-52.73,-415,321,-529,0.49,0.10,-0.80,0.32,163.34,-58.81,-126.85,29.51,698.91,-296.69,-296.94,21.32,10.83,-53.49,-468,319,-757,0.50,0.12,-0.81,0.28,169.68,-61.54,-135.53,28.48,walking
241,874704,673.10,-579.53,-283.81,30.60,2.56,-58.10,-468,319,-757,0.49,0.11,-0.81,0.30,166.39,-59.25,-131.38,29.51,642.03,-246.89,-308.53,13.20,-0.60,-41.53,-468,319,-757,0.49,0.12,-0.82,0.27,171.49,-60.29,-137.93,28.48,walking
242,874760,607.48,-514.22,-375.61,28.37,4.92,-61.58,-468,319,-757,0.47,0.11,-0.83,0.29,170.55,-57.31,-136.25,29.52,617.19,-247.80,-406.25,16.85,-5.99,-38.03,-468,319,-757,0.46,0.12,-0.84,0.26,176.21,-56.85,-143.03,28.49,walking
243,874817,530.27,-527.95,-390.38,23.21,-20.44,-52.41,-461,322,-548,0.43,0.11,-0.84,0.31,172.73,-52.28,-136.11,29.50,409.06,-281.74,-368.35,21.10,-12.99,-42.53,-461,322,-548,0.41,0.12,-0.85,0.30,175.86,-50.03,-138.74,28.50,walking
244,874873,397.46,-509.95,-393.19,18.87,2.29,-48.81,-461,322,-548,0.38,0.11,-0.86,0.33,174.30,-46.07,-135.23,29.49,513.67,-233.22,-408.20,11.55,16.68,-54.59,-461,322,-548,0.39,0.13,-0.86,0.30,178.67,-48.01,-140.52,28.48,walking
245,874929,517.70,-503.97,-417.97,11.70,13.69,-47.29,-412,317,-553,0.38,0.12,-0.86,0.32,177.45,-46.47,-138.06,29.52,579.10,-260.19,-328.37,14.40,20.37,-64.87,-412,317,-553,0.40,0.14,-0.85,0.30,180.04,-49.96,-140.91,28.47,walking
246,874985,512.76,-592.59,-299.26,3.15,-9.64,-44.82,-412,317,-553,0.39,0.12,-0.85,0.34,176.08,-47.77,-134.94,29.50,231.51,-521.30,-455.63,17.87,14.33,-123.54,-358,352,-556,0.27,0.13,-0.90,0.30,-174.70,-34.57,-144.32,28.48,walking
247,875099,-485.60,-985.96,-679.57,-22.93,-50.06,14.18,-358,352,-556,0.16,0.09,-0.93,0.33,-176.53,-20.42,-141.44,29.49,338.44,-1404.24,-864.20,59.40,3.37,-173.51,-358,352,-556,0.20,0.14,-0.89,0.37,-173.36,-28.02,-136.24,28.48,walking
248,875163,677.49,-900.02,-137.76,-91.02,10.09,60.47,-209,345,-529,0.30,0.13,-0.87,0.37,-178.77,-37.89,-134.59,29.49,1027.95,-262.33,202.45,21.06,93.91,-82.75,-209,345,-529,0.44,0.18,-0.82,0.34,179.50,-55.98,-134.90,28.47,walking
249,875324,1190.00,-386.72,-247.01,3.75,116.82,127.24,-442,-61,-543,0.64,0.00,-0.65,0.41,109.22,-56.92,-73.92,29.50,1025.57,628.30,36.32,-162.93,43.55,127.82,-442,-61,-543,0.68,0.06,-0.66,0.31,102.45,-70.08,-71.15,28.48,walking
250,875436,1178.89,-186.89,-505.37,32.05,140.59,63.53,-388,167,-809,0.64,0.05,-0.73,0.22,129.18,-74.68,-106.74,29.52,1143.01,66.10,-402.16,-174.61,-18.21,249.99,-388,167,-809,0.58,-0.02,-0.80,0.16,145.49,-67.18,-133.71,28.47,walking
251,875540,336.49,-535.40,-760.86,6.53,41.53,53.82,-253,98,-873,0.45,-0.10,-0.86,0.21,146.94,-47.42,-137.27,29.52,518.62,9.03,-453.06,-27.52,-82.20,192.76,-253,98,-873,0.41,-0.12,-0.89,0.15,152.16,-44.04,-149.21,28.48,walking
252,875606,-714.42,-690.67,-739.62,56.91,-80.87,48.81,-253,98,-873,0.27,-0.18,-0.91,0.24,149.63,-24.60,-144.28,29.49,139.89,-194.95,-365.72,93.15,-122.54,-29.65,-253,98,-873,0.24,-0.17,-0.93,0.23,152.97,-22.05,-146.54,28.46,walking
253,875663,224.67,-410.95,-517.33,25.99,-147.99,-2.13,-466,160,-870,0.21,-0.16,-0.93,0.26,154.96,-17.27,-144.80,29.51,451.54,-536.62,-682.92,100.94,-5.56,-111.06,-466,160,-870,0.24,-0.12,-0.92,0.27,157.50,-22.18,-143.01,28.47,walking
254,875720,57.19,-1108.46,-1162.17,12.18,88.22,-13.60,-466,160,-870,0.22,-0.14,-0.92,0.29,155.50,-19.13,-141.01,29.51,594.30,-420.96,-803.41,14.24,121.59,-73.49,-466,160,-870,0.29,-0.12,-0.92,0.24,155.91,-27.83,-144.77,28.47,walking
255,875778,708.01,-841.86,-749.02,-54.37,142.07,-74.64,-466,160,-870,0.34,-0.12,-0.90,0.24,153.17,-33.96,-141.75,29.50,711.67,82.46,-79.47,23.38,85.33,-70.24,-409,116,-880,0.45,-0.06,-0.87,0.17,155.46,-50.15,-145.61,28.49,walking
256,875834,996.52,-243.47,-220.21,42.26,-20.61,-37.44,-409,116,-880,0.50,-0.03,-0.85,0.19,155.54,-56.24,-141.45,29.50,982.79,-292.54,-421.87,62.27,-71.58,-54.31,-409,116,-880,0.49,0.01,-0.85,0.20,160.33,-56.95,-142.62,28.49,walking
257,875890,550.96,-583.01,-236.39,17.73,-85.29,-46.31,-409,116,-880,0.47,-0.01,-0.84,0.25,156.00,-52.49,-134.48,29.50,546.14,-267.27,-187.07,26.50,-1.46,-51.80,-361,105,-873,0.49,0.01,-0.83,0.25,155.92,-55.93,-134.17,28.48,walking
258,876003,665.16,-531.13,-262.02,28.79,3.23,-59.84,-361,105,-873,0.51,-0.01,-0.81,0.30,147.26,-55.12,-122.30,29.49,723.51,-224.79,-336.67,14.39,-9.84,-35.19,-359,127,-862,0.52,0.01,-0.82,0.25,153.23,-58.48,-130.97,28.49,walking
259,876059,612.85,-503.17,-377.32,23.74,-28.37,-56.43,-359,127,-862,0.49,0.01,-0.83,0.25,154.92,-55.53,-132.56,29.49,447.39,-259.52,-310.73,19.71,-21.51,-34.20,-359,127,-862,0.48,0.01,-0.85,0.24,158.58,-54.21,-137.10,28.48,walking
260,876121,491.09,-498.17,-315.73,22.58,-6.07,-51.32,-359,127,-862,0.46,-0.01,-0.85,0.26,156.14,-51.21,-133.57,29.49,558.23,-258.73,-327.82,12.79,-0.27,-41.06,-359,127,-862,0.47,0.01,-0.85,0.24,159.34,-53.19,-138.33,28.48,walking
261,876177,509.77,-524.11,-335.39,15.79,-20.27,-46.96,-358,102,-850,0.45,-0.01,-0.85,0.26,157.18,-50.13,-134.95,29.48,542.91,-276.79,-321.29,13.25,-2.53,-49.27,-358,102,-850,0.46,0.00,-0.85,0.24,159.50,-51.84,-138.20,28.46,walking
262,876234,438.54,-553.77,-253.54,9.99,-25.22,-46.23,-358,102,-850,0.45,-0.02,-0.85,0.28,155.32,-48.50,-132.36,29.49,507.75,-287.35,-352.11,11.96,4.75,-67.15,-358,102,-850,0.45,-0.00,-0.86,0.25,158.89,-50.52,-137.65,28.46,walking
263,876289,461.36,-568.91,-365.36,-3.17,-16.43,-46.37,-307,102,-857,0.43,-0.03,-0.86,0.26,156.70,-47.25,-135.85,29.48,470.40,-378.36,-477.91,10.93,1.97,-89.08,-307,102,-857,0.42,-0.02,-0.87,0.24,160.29,-47.08,-141.00,28.47,walking
264,876347,288.64,-738.34,-500.98,-14.38,-14.47,-24.79,-307,102,-857,0.38,-0.05,-0.88,0.27,157.09,-40.15,-137.89,29.48,430.79,-640.56,-667.66,27.80,-15.80,-126.34,-307,102,-857,0.36,-0.04,-0.89,0.26,160.13,-38.95,-140.83,28.48,walking
265,876403,-171.94,-790.28,-839.11,-31.56,-95.84,17.36,-470,98,-867,0.25,-0.09,-0.92,0.28,160.64,-24.02,-141.53,29.48,294.37,-981.93,-926.57,67.08,-36.88,-157.71,-470,98,-867,0.23,-0.06,-0.92,0.31,163.92,-23.21,-139.96,28.47,walking
266,876459,423.22,-882.93,-379.03,-82.98,-45.85,59.88,-470,98,-867,0.24,-0.08,-0.91,0.33,160.50,-22.52,-136.40,29.50,1057.13,-397.40,114.81,38.24,49.43,-88.91,-470,98,-867,0.38,-0.02,-0.87,0.31,158.54,-40.16,-132.21,28.49,walking
267,876516,958.98,-1025.82,116.52,-61.40,48.46,88.49,-470,98,-867,0.43,-0.06,-0.83,0.35,146.82,-42.50,-120.68,29.49,1461.67,253.48,307.68,-35.21,78.83,-57.72,-470,71,-880,0.56,-0.00,-0.79,0.26,141.66,-61.59,-119.73,28.46,walking
268,876572,1110.72,-577.27,-132.57,-46.77,84.35,115.06,-470,71,-880,0.58,-0.04,-0.76,0.28,130.73,-59.77,-109.99,29.51,896.48,456.73,206.30,-87.55,50.58,51.23,-470,71,-880,0.65,0.01,-0.73,0.20,123.25,-73.10,-105.44,28.48,walking
269,876629,1135.19,-365.72,-306.27,4.09,95.62,121.27,-470,71,-880,0.64,-0.01,-0.73,0.23,121.35,-68.97,-102.16,29.48,1083.19,541.08,38.21,-130.28,35.07,117.40,-209,-120,-870,0.67,0.01,-0.72,0.15,117.22,-78.42,-104.05,28.47,walking
270,876699,1124.33,-236.27,-453.67,26.48,105.64,96.18,-209,-120,-870,0.65,-0.01,-0.74,0.17,124.45,-73.68,-110.95,29.49,1158.33,488.95,-247.01,-159.43,7.68,211.24,-209,-120,-870,0.64,-0.01,-0.76,0.11,135.94,-76.28,-127.55,28.47,walking
271,876787,891.17,-297.85,-750.18,19.49,72.01,32.82,-442,105,-988,0.54,-0.01,-0.82,0.19,150.71,-62.08,-135.48,29.52,1037.66,-135.07,-359.56,-120.10,-65.41,249.99,-442,105,-988,0.53,-0.05,-0.83,0.19,147.53,-58.41,-135.69,28.48,walking
272,876863,-62.99,-427.06,-587.16,46.40,-3.02,69.55,-442,105,-988,0.35,-0.14,-0.88,0.28,148.11,-32.23,-135.29,29.50,16.30,-90.45,-573.18,3.38,-107.51,137.36,-442,222,-948,0.25,-0.17,-0.93,0.23,152.48,-22.04,-146.46,28.49,walking
273,876926,-642.52,-552.80,-614.01,37.62,-111.67,42.72,-442,222,-948,0.10,-0.22,-0.93,0.29,152.07,-3.70,-144.87,29.51,550.35,38.45,-539.31,95.76,-91.66,-76.26,-442,222,-948,0.21,-0.17,-0.94,0.20,155.09,-18.66,-151.67,28.46,walking
274,876980,623.66,-1084.23,-677.80,-0.77,51.15,-69.60,-442,222,-948,0.30,-0.13,-0.90,0.29,152.32,-27.98,-137.71,29.49,-141.48,-463.81,-779.60,-40.25,164.82,5.81,-412,256,-877,0.28,-0.17,-0.91,0.26,150.91,-24.65,-141.56,28.48,walking
275,877055,66.22,-673.89,-290.59,18.41,144.13,-10.48,-412,256,-877,0.30,-0.19,-0.88,0.32,144.75,-24.23,-132.41,29.51,718.57,-457.40,-90.45,-1.34,138.89,-97.57,-412,256,-877,0.44,-0.15,-0.84,0.27,139.58,-41.66,-128.46,28.47,walking
276,877110,1149.78,-210.45,-271.91,34.40,51.11,-43.91,-412,256,-877,0.51,-0.10,-0.83,0.21,140.09,-53.23,-130.14,29.48,1153.56,64.76,-300.23,52.41,-10.25,-62.20,-400,223,-879,0.54,-0.04,-0.82,0.17,149.57,-61.92,-138.45,28.48,walking
277,877168,794.49,-631.41,-420.29,19.71,-80.87,-49.19,-400,223,-879,0.51,-0.04,-0.83,0.21,149.28,-56.75,-134.70,29.47,381.84,-309.02,-166.26,36.45,-27.85,-53.96,-400,223,-879,0.51,-0.04,-0.83,0.24,147.59,-54.80,-130.11,28.48,walking
278,877224,576.17,-556.03,-215.27,28.65,9.41,-35.00,-400,223,-879,0.51,-0.05,-0.82,0.27,143.26,-53.30,-124.12,29.49,889.71,-288.33,-275.57,17.24,17.30,-44.01,-400,223,-879,0.54,-0.03,-0.81,0.24,145.58,-58.84,-127.59,28.47,walking
279,877280,625.67,-538.27,-247.50,23.21,2.23,-49.38,-388,208,-873,0.53,-0.04,-0.81,0.26,143.06,-56.77,-123.84,29.47,703.43,-223.57,-252.01,11.96,2.12,-37.22,-388,208,-873,0.54,-0.02,-0.81,0.23,146.68,-59.98,-128.41,28.45,walking
280,877338,730.29,-514.22,-379.58,17.22,-29.00,-41.08,-388,208,-873,0.52,-0.02,-0.82,0.24,148.71,-57.27,-129.81,29.49,713.44,-193.79,-278.20,24.44,-47.02,-28.43,-388,208,-873,0.52,0.00,-0.83,0.22,154.75,-59.35,-135.88,28.47,walking
281,877393,548.58,-539.61,-299.19,8.64,-50.65,-33.97,-456,208,-880,0.49,-0.01,-0.83,0.26,152.26,-53.85,-130.94,29.50,617.19,-251.71,-251.65,14.87,-28.86,-26.34,-456,208,-880,0.49,0.00,-0.83,0.25,154.78,-55.56,-133.37,28.48,walking
282,877450,609.86,-531.37,-296.14,8.83,-29.30,-33.42,-456,208,-880,0.48,-0.01,-0.83,0.27,153.03,-52.97,-130.29,29.49,479.49,-253.23,-292.42,17.97,-42.31,-27.80,-456,208,-880,0.47,0.00,-0.85,0.25,157.61,-52.57,-135.22,28.48,walking
283,877509,547.49,-575.62,-250.31,4.16,-36.64,-28.02,-358,263,-880,0.46,-0.02,-0.84,0.27,154.24,-50.44,-131.68,29.47,598.94,-238.10,-284.91,7.51,-29.03,-37.94,-358,263,-880,0.49,0.02,-0.85,0.18,165.28,-57.68,-147.67,28.48,walking
284,877599,405.33,-552.19,-341.13,0.14,-36.60,-31.25,-358,263,-880,0.46,-0.01,-0.86,0.23,159.64,-51.48,-140.10,29.46,306.64,-390.08,-451.42,6.27,-17.07,-52.56,-358,263,-880,0.41,-0.02,-0.88,0.23,161.69,-45.97,-142.57,28.48,walking
285,877655,169.25,-614.01,-604.31,-7.53,-53.99,-16.88,-348,-116,-846,0.34,-0.05,-0.90,0.26,161.33,-35.75,-141.26,29.49,454.22,-580.81,-687.19,31.12,-49.06,-97.82,-348,-116,-846,0.32,-0.03,-0.91,0.27,164.38,-34.13,-142.61,28.47,walking
286,877712,-109.19,-1661.25,-953.25,-34.84,-113.70,49.79,-348,-116,-846,0.23,-0.09,-0.92,0.31,161.27,-21.69,-138.67,29.47,731.69,-619.02,-841.19,81.76,-70.72,-131.66,-348,-116,-846,0.26,-0.04,-0.92,0.29,165.57,-27.10,-141.60,28.45,walking
287,877770,957.82,-599.61,-656.43,-85.41,-97.46,80.27,-348,-106,-772,0.28,-0.05,-0.92,0.26,164.68,-29.72,-144.69,29.49,1235.90,232.18,52.19,133.26,-42.35,-55.15,-348,-106,-772,0.42,0.04,-0.88,0.22,170.23,-48.91,-147.45,28.48,walking
288,877834,1320.19,-615.11,-569.03,-16.94,-87.85,88.68,-348,-106,-772,0.42,0.02,-0.88,0.24,166.58,-48.04,-143.72,29.48,1129.03,546.87,-305.11,114.85,-38.09,17.18,-348,-106,-772,0.47,0.08,-0.86,0.18,177.62,-56.43,-155.01,28.48,walking
289,877892,1052.61,-281.01,-576.66,5.68,-94.76,70.85,-248,-63,-551,0.45,0.07,-0.87,0.19,176.28,-53.59,-153.22,29.48,1127.44,551.76,-418.95,67.10,-39.92,89.20,-248,-63,-551,0.47,0.11,-0.86,0.15,-174.90,-57.64,-163.28,28.47,walking
290,877947,1065.06,-283.69,-619.45,1.56,-91.59,75.05,-248,-63,-551,0.45,0.09,-0.87,0.17,-178.73,-54.43,-158.57,29.49,1046.08,432.13,-377.93,40.55,-75.23,135.58,-248,-63,-551,0.47,0.11,-0.87,0.13,-172.72,-56.96,-166.21,28.46,walking
291,878005,840.58,-269.47,-482.73,22.64,-76.11,45.29,-470,-58,-509,0.45,0.13,-0.86,0.21,-175.85,-55.33,-155.14,29.49,1058.23,249.27,-344.73,-7.54,-86.27,176.88,-470,-58,-509,0.46,0.14,-0.85,0.21,-173.58,-57.39,-156.34,28.46,walking
292,878061,813.11,-341.86,-449.16,28.11,-68.25,15.59,-470,-58,-509,0.44,0.16,-0.85,0.25,-175.38,-55.29,-149.00,29.51,876.89,-99.73,-282.59,-27.53,-108.21,196.39,-470,-58,-509,0.43,0.14,-0.85,0.27,-178.79,-54.47,-145.46,28.48,walking
293,878118,432.86,-661.74,-355.16,26.25,-75.12,14.94,-470,-58,-509,0.38,0.12,-0.85,0.34,175.38,-46.62,-134.74,29.48,519.71,-407.41,-237.79,-14.88,-149.85,183.28,-388,324,-502,0.34,0.08,-0.87,0.35,172.80,-40.83,-132.93,28.49,walking
294,878174,-35.03,-440.00,-81.05,36.89,-157.65,47.50,-388,324,-502,0.25,0.03,-0.87,0.42,170.18,-27.13,-126.17,29.47,319.34,-297.67,-159.55,52.99,-250.00,103.88,-388,324,-502,0.25,0.06,-0.88,0.41,174.36,-29.07,-128.48,28.48,walking
295,878231,390.62,-429.20,-314.58,35.70,-250.00,52.91,-388,324,-502,0.22,0.10,-0.89,0.39,-179.52,-28.35,-132.90,29.49,127.99,-111.21,-336.24,133.65,-250.00,13.55,-461,326,-109,0.21,0.18,-0.87,0.40,-170.23,-30.38,-133.47,28.47,walking
296,878288,-408.75,-354.13,-246.83,8.05,-250.00,37.93,-461,326,-109,0.08,0.17,-0.87,0.45,-166.31,-17.54,-127.82,29.49,-2.69,-278.99,-521.91,52.65,-103.25,-79.56,-461,326,-109,0.11,0.25,-0.86,0.43,-158.11,-23.62,-131.63,28.48,walking
297,878345,543.46,-553.71,22.83,-10.80,44.94,-58.40,-461,326,-109,0.23,0.32,-0.76,0.52,-160.00,-42.99,-119.59,29.49,-153.32,-589.29,-281.49,-46.38,54.17,61.85,-327,-113,-121,0.15,0.23,-0.82,0.50,-164.10,-28.34,-120.80,28.48,walking
298,878400,-19.71,-499.45,-28.93,-8.13,4.94,6.83,-327,-113,-121,0.09,0.18,-0.81,0.55,-167.88,-20.75,-113.89,29.46,446.96,-543.21,-413.64,-29.82,44.16,-32.84,-327,-113,-121,0.14,0.20,-0.82,0.51,-167.82,-25.45,-118.85,28.46,walking
299,878457,609.31,-317.44,-571.47,-12.95,1.56,-33.04,-327,-113,-121,0.18,0.24,-0.84,0.46,-163.92,-31.65,-127.21,29.50,503.11,-197.51,-314.15,-2.63,2.59,-29.33,-327,-113,-121,0.23,0.28,-0.82,0.43,-160.35,-38.86,-131.60,28.47,walking
300,878513,701.90,-400.45,-419.62,4.50,-14.33,-22.76,-466,-92,-17,0.25,0.34,-0.79,0.45,-154.87,-44.16,-130.33,29.46,573.85,-221.74,-275.33,21.79,-32.69,-24.02,-466,-92,-17,0.26,0.38,-0.76,0.46,-149.30,-48.77,-131.39,28.48,walking
301,878570,468.57,-567.99,-163.33,7.74,-35.90,-9.56,-466,-92,-17,0.23,0.38,-0.74,0.51,-152.41,-46.55,-122.36,29.50,460.57,-312.13,-99.91,16.00,-14.41,-22.63,-466,-92,-17,0.24,0.39,-0.71,0.53,-153.22,-49.53,-118.46,28.47,walking
302,878627,459.35,-541.75,-176.82,7.11,-15.17,-6.95,-456,-120,-17,0.22,0.37,-0.71,0.55,-154.98,-46.44,-115.18,29.50,712.46,-214.11,-198.30,13.28,-16.46,-22.29,-456,-120,-17,0.26,0.41,-0.69,0.54,-151.61,-52.49,-118.77,28.47,walking
303,878684,863.71,-502.62,-309.75,6.49,-45.82,-4.21,-456,-120,-17,0.26,0.42,-0.69,0.53,-149.20,-52.80,-121.01,29.50,779.79,-201.66,-244.63,28.54,-71.47,-9.68,-456,-120,-17,0.28,0.45,-0.68,0.51,-143.01,-56.25,-126.84,28.47,walking
304,878739,588.07,-514.40,-158.63,3.03,-88.84,0.45,-456,-120,-17,0.25,0.44,-0.69,0.52,-145.13,-52.56,-123.59,29.48,471.74,-245.42,-145.51,24.36,-65.40,-5.04,-442,-99,-3,0.25,0.45,-0.68,0.52,-143.07,-53.40,-124.38,28.48,walking
305,878796,461.30,-512.27,-217.16,5.58,-60.62,2.76,-442,-99,-3,0.21,0.43,-0.70,0.53,-144.10,-48.79,-122.52,29.50,536.80,-284.30,-184.27,18.56,-54.37,-8.08,-442,-99,-3,0.22,0.45,-0.69,0.52,-142.07,-50.53,-123.98,28.47,walking
306,878852,569.34,-511.72,-215.58,3.23,-71.27,4.76,-442,-99,-3,0.20,0.44,-0.70,0.53,-142.58,-47.87,-122.75,29.45,571.23,-246.28,-182.01,20.54,-66.41,-10.29,-464,223,38,0.22,0.48,-0.65,0.55,-138.95,-54.09,-121.70,28.49,walking
307,878908,621.28,-511.66,-216.80,1.92,-81.86,5.48,-464,223,38,0.20,0.49,-0.64,0.56,-138.30,-53.03,-118.92,29.48,625.55,-252.69,-199.58,18.33,-70.05,-10.29,-464,223,38,0.21,0.52,-0.61,0.56,-133.54,-56.48,-121.14,28.51,walking
308,878965,562.44,-508.79,-250.24,2.25,-86.83,0.92,-464,223,38,0.17,0.52,-0.62,0.56,-131.40,-52.78,-120.93,29.47,497.99,-258.42,-234.44,17.15,-60.47,-13.98,-251,216,65,0.18,0.56,-0.58,0.56,-125.22,-57.27,-123.21,28.48,walking
309,879021,396.12,-469.54,-306.21,8.74,-75.52,4.23,-251,216,65,0.14,0.57,-0.58,0.56,-121.92,-53.26,-122.91,29.45,418.88,-278.93,-375.18,22.22,-46.51,-25.81,-251,216,65,0.13,0.60,-0.57,0.55,-113.43,-53.83,-128.98,28.48,walking
310,879077,259.64,-570.37,-513.92,10.15,-86.17,6.80,-251,216,65,0.06,0.62,-0.58,0.52,-107.84,-45.96,-130.78,29.44,490.36,-309.20,-587.22,45.37,-61.16,-52.43,-251,216,65,0.07,0.68,-0.54,0.49,-96.37,-47.44,-138.63,28.46,walking
311,879132,371.22,-640.87,-702.39,-4.14,-119.47,18.26,-466,98,-121,-0.00,0.67,-0.62,0.40,-96.15,-32.78,-143.49,29.46,569.27,-368.59,-900.39,83.15,-101.06,-87.91,-466,98,-121,-0.01,0.70,-0.62,0.36,-91.60,-29.54,-147.67,28.46,walking
312,879192,-30.58,-1293.82,-1141.72,-36.29,-163.23,64.42,-466,98,-121,-0.13,0.67,-0.67,0.29,-93.27,-12.69,-145.29,29.49,1455.32,-669.62,-1100.89,132.78,-140.99,-102.98,-466,98,-121,-0.10,0.71,-0.61,0.34,-87.48,-21.27,-143.88,28.46,walking
313,879250,1211.36,-662.60,-405.33,-94.28,-175.74,64.21,-249,-68,-125,-0.08,0.68,-0.65,0.31,-93.07,-19.38,-146.97,29.46,1140.20,-52.00,219.48,113.80,-107.49,-25.79,-249,-68,-125,-0.03,0.67,-0.64,0.37,-95.85,-27.32,-144.58,28.47,walking
314,879307,965.45,-696.84,-266.36,-61.87,-63.04,104.90,-249,-68,-125,-0.01,0.59,-0.72,0.38,-110.11,-25.54,-142.19,29.47,1186.89,535.40,-61.71,58.56,-33.98,3.28,-249,-68,-125,0.08,0.59,-0.71,0.37,-109.77,-33.06,-148.56,28.45,walking
315,879370,1173.58,-444.40,-550.54,-38.43,-71.43,89.89,-233,44,-104,0.10,0.58,-0.71,0.38,-112.60,-36.20,-148.05,29.44,1017.76,385.56,-312.81,29.46,-69.82,115.30,-233,44,-104,0.18,0.59,-0.70,0.36,-109.74,-42.47,-155.86,28.47,walking
316,879427,905.94,-314.76,-548.83,-19.42,-73.86,99.71,-233,44,-104,0.18,0.56,-0.72,0.36,-114.06,-41.69,-154.34,29.47,967.35,285.34,-392.03,-28.60,-86.43,186.03,-233,44,-104,0.23,0.55,-0.73,0.34,-113.89,-44.74,-160.55,28.47,walking
317,879484,792.36,-220.09,-441.59,5.65,-41.22,65.67,-145,-120,-98,0.27,0.46,-0.78,0.33,-127.85,-46.38,-157.18,29.45,1022.46,166.75,-242.86,-79.43,-95.45,223.05,-145,-120,-98,0.33,0.40,-0.80,0.30,-137.11,-50.05,-159.07,28.49,walking
318,879540,646.97,-278.87,-350.77,10.81,-36.14,15.92,-145,-120,-98,0.34,0.35,-0.81,0.32,-145.04,-50.58,-153.99,29.48,793.03,-278.02,-337.71,-89.58,-132.69,227.65,-145,-120,-98,0.33,0.29,-0.84,0.32,-155.60,-47.32,-149.59,28.46,walking
319,879597,162.11,-582.46,-510.93,-6.81,-34.85,15.05,-145,-120,-98,0.25,0.25,-0.87,0.34,-160.49,-36.91,-144.22,29.48,208.19,-117.92,-478.76,-57.58,-111.24,157.97,-414,-114,-113,0.18,0.27,-0.89,0.31,-155.32,-29.68,-148.13,28.48,walking
320,879655,-475.46,-472.60,-687.99,14.78,-39.34,1.76,-414,-114,-113,0.06,0.28,-0.90,0.33,-151.35,-16.88,-144.22,29.47,-112.85,-228.70,-530.70,26.28,-105.51,-12.47,-414,-114,-113,-0.02,0.31,-0.90,0.31,-145.14,-9.47,-144.37,28.47,walking
321,879711,-22.16,-335.88,-502.01,2.33,-121.15,-22.12,-414,-114,-113,-0.06,0.34,-0.88,0.32,-139.32,-6.17,-142.49,29.46,468.87,-344.36,-591.86,49.58,-37.61,-115.34,-415,-65,9,0.00,0.45,-0.82,0.35,-129.20,-18.65,-142.72,28.47,walking
322,879768,701.29,-959.35,-960.57,-13.47,14.40,-21.59,-415,-65,9,0.02,0.48,-0.79,0.38,-126.39,-23.65,-140.22,29.47,577.82,-381.04,-436.58,48.13,-50.59,-22.29,-415,-65,9,0.05,0.51,-0.76,0.41,-123.32,-29.31,-138.93,28.44,walking
323,879824,214.29,-1217.53,-453.12,28.87,47.46,-73.49,-415,-65,9,0.00,0.48,-0.74,0.47,-126.46,-26.94,-129.13,29.46,652.95,-284.48,-308.23,22.33,23.29,-57.21,-470,-99,-17,0.11,0.52,-0.70,0.48,-124.63,-40.66,-132.70,28.48,walking
324,879894,628.17,-339.42,-199.22,38.90,-44.98,-56.71,-470,-99,-17,0.14,0.53,-0.68,0.49,-125.25,-45.07,-131.90,29.48,135.31,-265.75,-352.29,40.69,-41.22,-43.91,-470,-99,-17,0.09,0.53,-0.72,0.44,-122.22,-36.96,-137.34,28.49,walking
325,879951,315.92,-525.94,-207.89,28.62,-36.05,-37.58,-470,-99,-17,0.06,0.50,-0.72,0.48,-126.39,-34.57,-130.51,29.48,451.23,-356.75,-335.33,24.41,-4.08,-46.50,-442,-120,-71,0.09,0.50,-0.73,0.47,-127.21,-36.29,-133.01,28.48,walking
326,880007,678.41,-504.64,-266.17,14.37,-22.96,-34.95,-442,-120,-71,0.12,0.49,-0.72,0.48,-129.96,-39.34,-131.45,29.49,403.44,-270.57,-282.53,19.58,-14.48,-45.45,-442,-120,-71,0.14,0.49,-0.73,0.46,-129.79,-40.76,-134.61,28.46,walking
327,880065,594.73,-496.03,-230.90,10.19,-13.68,-34.87,-442,-120,-71,0.15,0.47,-0.72,0.48,-133.62,-42.51,-131.40,29.47,531.74,-276.49,-351.56,14.81,-13.05,-44.70,-442,-120,-71,0.18,0.48,-0.73,0.46,-132.06,-44.54,-135.95,28.47,walking
328,880122,634.28,-486.02,-274.23,7.22,-39.37,-27.01,-470,-120,-10,0.18,0.47,-0.72,0.48,-133.72,-45.68,-132.65,29.46,422.36,-250.00,-338.99,15.94,-26.49,-42.59,-470,-120,-10,0.19,0.49,-0.72,0.46,-130.39,-45.74,-136.74,28.45,walking
329,880177,627.32,-505.37,-302.25,6.18,-22.25,-28.31,-470,-120,-10,0.19,0.48,-0.71,0.48,-132.78,-46.22,-133.35,29.46,549.50,-279.66,-334.35,9.06,-9.30,-43.46,-470,-120,-10,0.20,0.49,-0.71,0.47,-130.75,-48.13,-136.22,28.46,walking
330,880234,697.14,-480.77,-283.39,3.56,-11.38,-31.97,-224,-111,-69,0.23,0.45,-0.73,0.47,-137.90,-48.94,-134.12,29.45,568.54,-244.26,-349.18,6.36,-2.49,-43.09,-224,-111,-69,0.26,0.44,-0.74,0.44,-138.11,-50.44,-138.69,28.47,walking
331,880291,654.72,-506.29,-329.41,7.95,-1.15,-33.48,-224,-111,-69,0.27,0.41,-0.75,0.45,-143.76,-50.02,-135.32,29.46,624.82,-262.63,-383.97,4.72,4.82,-44.16,-224,-111,-69,0.29,0.41,-0.75,0.43,-142.77,-51.62,-139.29,28.47,walking
332,880347,615.05,-520.51,-311.89,4.83,2.51,-38.80,-239,-120,-118,0.29,0.37,-0.77,0.43,-149.76,-50.42,-135.37,29.44,544.74,-260.74,-366.03,4.10,17.62,-53.84,-239,-120,-118,0.31,0.37,-0.77,0.41,-149.05,-51.52,-139.51,28.45,walking
333,880403,518.98,-533.94,-270.57,-1.15,3.11,-39.98,-239,-120,-118,0.30,0.34,-0.78,0.43,-155.62,-49.54,-133.76,29.45,453.80,-271.42,-358.28,3.52,21.60,-69.08,-239,-120,-118,0.31,0.34,-0.79,0.41,-153.65,-50.01,-138.06,28.45,walking
334,880461,538.64,-543.46,-348.39,-14.69,12.71,-38.28,-239,-120,-118,0.30,0.32,-0.80,0.42,-157.83,-48.19,-134.60,29.46,634.16,-290.77,-453.74,5.58,8.96,-90.19,-310,-102,-17,0.30,0.37,-0.77,0.41,-148.94,-51.14,-138.57,28.46,walking
335,880517,649.23,-726.50,-418.70,-14.05,-23.99,-26.01,-310,-102,-17,0.27,0.38,-0.77,0.45,-149.56,-48.23,-133.09,29.47,634.46,-455.32,-584.47,16.72,-22.98,-111.85,-310,-102,-17,0.25,0.42,-0.76,0.44,-141.55,-48.21,-137.72,28.47,walking
336,880574,25.82,-748.05,-450.50,-23.83,-59.39,5.68,-310,-102,-17,0.15,0.39,-0.79,0.44,-142.98,-35.65,-133.63,29.47,343.44,-911.32,-786.38,31.43,-20.39,-156.11,-253,-120,-10,0.11,0.41,-0.79,0.44,-138.98,-33.12,-133.92,28.46,walking
337,880631,173.89,-803.96,-579.65,-67.96,-24.23,31.67,-253,-120,-10,0.06,0.38,-0.81,0.43,-140.55,-25.77,-133.59,29.48,737.00,-481.26,96.80,18.51,41.72,-114.20,-253,-120,-10,0.14,0.41,-0.75,0.50,-142.29,-38.55,-125.63,28.47,walking
338,880686,816.59,-991.94,23.56,-50.52,67.65,69.11,-253,-120,-10,0.16,0.36,-0.73,0.56,-153.31,-38.97,-115.25,29.46,1407.84,74.40,280.21,-2.61,92.32,-80.31,-253,-120,-10,0.28,0.40,-0.67,0.56,-158.04,-55.47,-111.31,28.46,walking
339,880743,1244.14,-684.75,-240.05,-48.14,82.88,90.11,-178,-120,23,0.30,0.37,-0.67,0.57,-164.18,-54.99,-107.12,29.44,963.99,282.47,-8.79,-37.39,38.54,10.72,-178,-120,23,0.37,0.42,-0.63,0.54,-161.38,-66.20,-110.75,28.46,walking
340,880799,1137.27,-468.38,-354.37,-12.49,67.06,109.03,-178,-120,23,0.35,0.41,-0.64,0.55,-161.56,-63.24,-110.62,29.44,1063.84,489.81,9.40,-82.37,36.94,98.73,-178,-120,23,0.42,0.44,-0.61,0.51,-157.34,-72.91,-116.99,28.45,walking
341,880892,1090.27,-221.19,-421.69,12.06,76.29,105.29,-129,-118,72,0.30,0.50,-0.63,0.52,-135.49,-62.94,-128.55,29.45,1139.16,431.15,-204.47,-136.89,-16.93,220.91,-129,-118,72,0.33,0.51,-0.63,0.48,-128.68,-65.76,-139.42,28.48,walking
342,880948,1119.75,-220.64,-527.65,11.13,69.92,62.97,-129,-118,72,0.32,0.52,-0.63,0.48,-126.05,-64.44,-140.52,29.48,1149.11,108.40,-244.02,-146.58,-31.19,249.99,-129,-118,72,0.33,0.51,-0.65,0.46,-127.48,-63.70,-143.15,28.47,walking
343,881004,845.21,-494.02,-529.05,5.78,35.29,44.64,-442,-120,-111,0.31,0.46,-0.69,0.46,-136.31,-58.92,-138.80,29.48,686.58,-275.27,-308.35,-90.13,-73.99,249.99,-442,-120,-111,0.29,0.40,-0.76,0.43,-145.72,-51.25,-136.83,28.45,walking
344,881069,-585.08,-363.22,-447.57,89.96,18.37,25.50,-442,-120,-111,0.16,0.37,-0.81,0.42,-145.06,-34.69,-135.88,29.45,-541.93,-367.55,-590.58,44.11,-104.29,45.62,-442,-120,-111,0.01,0.35,-0.86,0.38,-141.14,-16.71,-138.46,28.46,walking
345,881126,-27.04,-377.32,-316.35,27.98,-123.50,20.48,-337,-120,-111,-0.07,0.34,-0.86,0.38,-139.31,-8.13,-135.30,29.47,386.60,-160.71,-508.54,74.86,3.04,-98.97,-337,-120,-111,0.00,0.39,-0.84,0.37,-135.94,-17.27,-139.55,28.46,walking
346,881182,348.21,-959.35,-863.04,5.90,84.35,-38.48,-337,-120,-111,0.01,0.39,-0.83,0.39,-137.64,-19.09,-137.06,29.45,451.72,-503.54,-869.26,-13.02,168.82,-44.02,-337,-120,-111,0.07,0.39,-0.84,0.38,-139.29,-24.52,-140.36,28.47,walking
347,881240,505.00,-711.49,-428.16,-8.89,176.25,-29.21,-371,-7,-111,0.13,0.38,-0.79,0.46,-143.57,-33.54,-131.49,29.46,942.20,-61.89,-74.89,7.71,133.40,-93.92,-371,-7,-111,0.25,0.42,-0.73,0.47,-143.53,-49.69,-131.57,28.47,walking
348,881295,1119.20,-221.13,-157.53,45.71,21.97,-40.33,-371,-7,-111,0.31,0.44,-0.69,0.48,-143.57,-58.25,-131.24,29.45,1256.65,-198.97,-382.51,61.43,-40.48,-55.29,-371,-7,-111,0.34,0.47,-0.68,0.46,-136.05,-62.01,-139.20,28.47,walking
349,881353,716.61,-622.25,-367.13,21.33,-87.95,-54.48,-371,-7,-111,0.30,0.46,-0.70,0.45,-137.34,-56.44,-137.87,29.47,389.77,-307.86,-181.58,29.55,-17.85,-52.08,-405,44,-121,0.28,0.45,-0.71,0.47,-139.78,-54.47,-134.10,28.45,walking
350,881410,704.90,-620.61,-223.21,34.07,19.97,-49.28,-405,44,-121,0.27,0.43,-0.70,0.50,-145.28,-53.89,-127.14,29.43,784.79,-242.74,-245.18,15.11,6.10,-40.27,-405,44,-121,0.30,0.44,-0.69,0.48,-142.96,-57.53,-130.73,28.47,walking
351,881466,643.13,-517.52,-215.88,30.60,1.34,-59.84,-405,44,-121,0.29,0.43,-0.69,0.50,-146.29,-56.20,-126.83,29.43,678.34,-245.61,-326.60,13.22,-1.67,-32.89,-442,54,-121,0.30,0.44,-0.70,0.48,-141.69,-57.35,-132.88,28.43,walking
352,881606,503.85,-496.77,-315.55,24.30,-7.09,-50.96,-468,49,65,0.14,0.48,-0.61,0.61,-140.52,-49.40,-108.82,29.46,561.52,-270.39,-362.67,12.98,7.63,-41.35,-468,49,65,0.16,0.51,-0.62,0.57,-133.66,-51.61,-117.87,28.46,walking
353,881660,575.62,-513.61,-324.34,17.60,-21.94,-50.40,-468,49,65,0.15,0.52,-0.63,0.56,-130.67,-50.25,-120.32,29.44,507.45,-295.65,-290.47,15.26,6.51,-55.09,-468,49,65,0.16,0.54,-0.62,0.54,-125.87,-52.17,-125.45,28.48,walking
354,881722,518.55,-544.98,-285.46,11.90,-22.75,-45.30,-470,-116,63,0.15,0.52,-0.64,0.54,-128.20,-48.69,-124.93,29.42,443.12,-334.66,-370.67,17.56,-10.09,-71.43,-470,-116,63,0.15,0.53,-0.66,0.51,-124.97,-47.89,-130.27,28.47,walking
355,881779,389.10,-679.44,-471.50,-4.32,-31.47,-32.41,-470,-116,63,0.11,0.52,-0.69,0.50,-125.74,-41.47,-130.43,29.45,527.65,-526.98,-544.07,30.26,-27.51,-101.73,-470,-116,63,0.10,0.54,-0.69,0.48,-122.29,-41.00,-133.61,28.47,walking
356,881836,129.15,-823.43,-547.24,-18.94,-77.36,1.20,-470,-116,63,0.02,0.51,-0.73,0.45,-123.00,-29.62,-132.81,29.42,463.68,-684.45,-886.66,52.67,-44.12,-155.42,-299,-118,55,0.02,0.54,-0.72,0.43,-118.29,-29.61,-136.65,28.45,walking
357,881891,42.24,-953.49,-958.98,-72.34,-85.73,42.11,-299,-118,55,-0.04,0.52,-0.77,0.37,-119.07,-18.87,-139.43,29.44,740.60,-601.14,-175.23,73.98,-32.46,-123.21,-299,-118,55,-0.00,0.54,-0.72,0.45,-118.33,-28.34,-133.21,28.47,walking
358,881948,812.13,-955.69,-38.76,-59.77,0.61,67.12,-299,-118,55,0.01,0.49,-0.71,0.50,-126.84,-30.77,-124.81,29.43,1417.48,71.90,432.43,35.03,64.97,-66.16,-412,-20,50,0.13,0.53,-0.62,0.57,-128.25,-49.46,-119.57,28.45,walking
359,882004,1439.45,-907.59,-198.73,-46.10,46.59,106.51,-412,-20,50,0.14,0.49,-0.63,0.58,-136.40,-49.02,-114.84,29.46,1005.07,449.95,92.71,-5.37,20.55,17.36,-412,-20,50,0.24,0.53,-0.58,0.57,-134.61,-62.13,-118.97,28.47,walking
360,882060,1100.46,-468.69,-357.67,-2.00,31.78,114.94,-412,-20,50,0.24,0.50,-0.61,0.57,-138.25,-59.21,-118.16,29.43,1099.18,502.50,-40.41,-71.52,36.13,107.73,-412,-20,50,0.32,0.52,-0.58,0.54,-135.22,-68.76,-125.72,28.47,walking
361,882117,1078.43,-342.10,-472.78,18.04,60.46,119.24,-234,-56,52,0.30,0.51,-0.60,0.54,-137.36,-65.14,-123.62,29.44,1066.53,492.98,-274.78,-110.34,1.37,168.25,-234,-56,52,0.35,0.52,-0.60,0.50,-126.53,-69.63,-139.05,28.46,walking
362,882173,1118.59,-160.28,-530.58,22.56,67.11,91.75,-234,-56,52,0.33,0.53,-0.60,0.50,-126.07,-68.20,-138.38,29.43,1196.47,412.84,-303.22,-129.97,-30.50,242.07,-234,-56,52,0.36,0.53,-0.61,0.47,-121.27,-68.85,-147.52,28.45,walking
363,882234,1014.71,-200.93,-674.87,16.98,54.99,41.15,-192,-92,-125,0.39,0.46,-0.68,0.42,-132.40,-65.85,-148.54,29.46,1084.41,-22.58,-391.30,-111.80,-71.37,249.99,-192,-92,-125,0.40,0.39,-0.74,0.38,-143.80,-62.51,-147.61,28.46,walking
364,882291,494.38,-589.17,-527.71,22.35,-15.79,46.07,-192,-92,-125,0.34,0.34,-0.79,0.39,-153.24,-52.83,-140.99,29.45,574.22,-203.92,-254.52,-52.51,-93.61,234.02,-192,-92,-125,0.33,0.29,-0.82,0.38,-159.86,-48.66,-139.59,28.46,walking
365,882347,-652.53,-543.58,-572.88,77.90,-58.02,18.05,-456,-106,-121,0.17,0.28,-0.85,0.41,-156.74,-30.77,-135.12,29.43,-142.94,-323.36,-581.79,60.13,-115.97,-4.24,-456,-106,-121,0.06,0.29,-0.87,0.39,-150.60,-19.93,-136.78,28.45,walking
366,882407,299.07,-340.76,-469.85,2.97,-148.11,-2.97,-456,-106,-121,0.05,0.34,-0.85,0.39,-144.35,-20.59,-137.73,29.43,85.69,-863.16,-756.16,71.58,-61.00,-82.56,-456,-106,-121,0.00,0.36,-0.84,0.42,-140.94,-17.63,-133.45,28.46,walking
367,882464,-279.85,-771.97,-864.69,13.81,89.45,8.29,-470,-120,36,-0.05,0.36,-0.84,0.41,-139.02,-12.39,-131.83,29.46,379.46,-558.47,-681.03,-2.45,126.28,-67.47,-470,-120,36,0.01,0.40,-0.81,0.43,-136.57,-20.80,-132.64,28.45,walking
368,882520,835.88,-717.29,-1090.76,-73.59,72.14,-57.31,-470,-120,36,0.07,0.44,-0.80,0.41,-132.93,-28.00,-137.66,29.43,1044.74,203.19,-40.83,48.20,-2.08,-58.33,-470,-120,36,0.30,0.58,-0.64,0.42,-108.22,-59.29,-157.67,28.48,walking
369,882605,827.21,-621.22,-374.94,29.93,-69.09,-45.85,-468,-94,85,0.25,0.57,-0.64,0.45,-114.22,-56.27,-147.71,29.45,552.49,-342.90,-217.96,43.73,-43.40,-49.71,-468,-94,85,0.23,0.57,-0.63,0.48,-116.84,-55.95,-142.33,28.46,walking
370,882661,468.99,-504.15,-268.13,26.02,-11.53,-39.37,-468,-94,85,0.19,0.55,-0.65,0.50,-122.48,-52.27,-134.63,29.42,800.90,-328.86,-216.55,20.04,11.98,-42.27,-468,-94,85,0.22,0.55,-0.62,0.52,-123.88,-56.49,-132.64,28.47,walking
371,882716,705.93,-541.81,-230.35,25.31,3.69,-50.91,-470,-120,50,0.21,0.52,-0.63,0.53,-129.79,-55.87,-127.13,29.43,728.15,-232.79,-207.40,10.57,-8.41,-34.50,-470,-120,50,0.24,0.53,-0.62,0.53,-129.16,-59.00,-129.33,28.46,walking
372,882772,701.97,-525.57,-321.72,23.45,-22.20,-51.80,-470,-120,50,0.23,0.52,-0.63,0.53,-130.24,-56.73,-128.62,29.41,610.47,-209.41,-344.24,19.93,-39.02,-25.86,-470,-120,50,0.24,0.54,-0.64,0.50,-124.58,-56.61,-135.85,28.45,walking
373,882831,475.77,-519.10,-311.65,18.39,-32.31,-45.47,-253,-120,36,0.20,0.51,-0.67,0.50,-128.74,-51.66,-132.00,29.44,464.84,-273.07,-285.28,13.03,-13.31,-26.56,-253,-120,36,0.21,0.51,-0.67,0.49,-128.42,-51.38,-133.88,28.45,walking
374,882887,594.42,-513.55,-286.87,20.90,1.93,-45.56,-253,-120,36,0.20,0.50,-0.68,0.51,-132.15,-50.83,-129.89,29.44,500.12,-273.07,-317.75,11.29,-4.32,-30.38,-253,-120,36,0.21,0.50,-0.68,0.49,-130.49,-51.19,-133.02,28.45,walking
375,882944,497.74,-529.72,-353.21,23.17,-15.50,-45.32,-253,-120,36,0.18,0.49,-0.69,0.50,-132.28,-47.99,-130.63,29.44,372.74,-307.68,-341.00,14.45,5.07,-42.31,-280,-99,40,0.18,0.50,-0.70,0.48,-130.00,-46.53,-133.24,28.47,walking
376,882999,328.80,-523.32,-256.59,19.87,-30.89,-43.25,-280,-99,40,0.13,0.48,-0.71,0.50,-132.30,-42.31,-128.59,29.41,299.56,-351.14,-339.05,19.54,-5.94,-64.30,-280,-99,40,0.12,0.49,-0.71,0.49,-130.01,-40.56,-130.94,28.45,walking
377,883056,266.48,-551.45,-359.37,2.62,-34.03,-29.15,-280,-99,40,0.08,0.48,-0.73,0.48,-130.43,-35.33,-129.58,29.42,444.82,-359.37,-474.55,25.84,-13.85,-91.90,-307,-65,23,0.10,0.51,-0.72,0.46,-125.78,-37.50,-134.02,28.47,walking
378,883112,319.09,-812.56,-543.40,-9.64,-48.15,2.13,-307,-65,23,0.04,0.49,-0.74,0.46,-126.68,-31.13,-132.01,29.44,481.26,-681.03,-867.92,72.40,-33.61,-160.43,-307,-65,23,0.04,0.55,-0.71,0.43,-116.59,-32.01,-137.38,28.46,walking
379,883188,-24.78,-1021.79,-1019.96,-67.58,-79.17,60.44,-307,-65,23,-0.04,0.53,-0.76,0.37,-117.43,-19.85,-139.59,29.43,1085.45,-635.01,-227.11,87.32,-21.11,-116.42,-348,-65,-111,0.02,0.55,-0.71,0.44,-117.17,-30.53,-134.90,28.46,walking
380,883265,1282.10,-1067.93,-288.94,-45.07,-64.82,93.66,-348,-65,-111,0.04,0.46,-0.75,0.47,-131.03,-30.10,-129.20,29.40,1416.20,423.83,81.18,40.75,5.83,-6.10,-348,-65,-111,0.13,0.48,-0.72,0.48,-130.54,-40.12,-132.43,28.46,walking
381,883327,1146.42,-410.03,-353.21,-25.92,-16.66,109.91,-249,-106,-125,0.19,0.44,-0.76,0.45,-138.27,-42.59,-135.02,29.41,1045.53,458.56,-224.55,-28.88,-8.62,121.41,-249,-106,-125,0.36,0.41,-0.76,0.35,-137.31,-56.28,-154.47,28.46,walking
382,883402,1046.26,-313.48,-636.41,6.12,0.11,121.25,-249,-106,-125,0.35,0.37,-0.78,0.35,-144.44,-54.38,-150.15,29.43,1080.02,495.61,-393.68,-65.70,-36.82,182.66,-249,-106,-125,0.40,0.37,-0.79,0.30,-140.55,-57.63,-160.83,28.45,walking
383,883459,1019.84,-152.16,-530.33,13.05,5.97,82.34,-199,3,-125,0.40,0.36,-0.78,0.32,-144.16,-58.53,-156.36,29.42,1075.99,427.43,-291.08,-90.97,-68.89,243.08,-199,3,-125,0.43,0.34,-0.79,0.28,-143.26,-60.50,-162.05,28.44,walking
384,883516,924.50,-145.69,-438.60,20.62,5.03,28.79,-199,3,-125,0.43,0.35,-0.77,0.31,-144.32,-61.71,-158.62,29.44,946.17,-93.20,-270.02,-105.80,-96.58,249.99,-199,3,-125,0.43,0.30,-0.79,0.31,-154.62,-59.81,-151.51,28.45,walking
385,883572,508.24,-661.62,-247.13,19.52,-26.43,17.10,-253,-171,-114,0.38,0.27,-0.80,0.38,-166.08,-53.71,-135.67,29.42,436.65,-232.79,-281.31,-68.02,-148.79,226.10,-253,-171,-114,0.32,0.24,-0.83,0.38,-166.32,-46.02,-136.92,28.46,walking
386,883629,-857.06,-508.73,-841.80,40.03,-87.06,11.73,-253,-171,-114,0.17,0.23,-0.88,0.37,-161.00,-28.42,-139.72,29.43,-366.82,-337.77,-537.35,59.20,-141.49,-24.02,-253,-171,-114,0.03,0.23,-0.91,0.35,-155.58,-12.34,-140.75,28.47,walking
387,883686,590.21,-303.89,-422.73,-8.61,-173.27,-14.63,-178,-229,-125,0.08,0.26,-0.91,0.33,-153.94,-18.09,-144.20,29.44,-182.50,-780.52,-707.64,52.86,-138.85,-15.01,-178,-229,-125,-0.01,0.23,-0.91,0.33,-154.34,-7.61,-141.76,28.47,walking
388,883743,-682.50,-651.18,-669.13,43.78,3.55,24.77,-178,-229,-125,-0.11,0.17,-0.93,0.32,-157.02,4.94,-141.40,29.40,108.83,-886.17,-755.55,-5.07,106.25,-68.33,-178,-229,-125,-0.06,0.18,-0.92,0.34,-158.01,-1.12,-139.38,28.47,walking
389,883800,1117.19,-238.22,-863.59,-70.99,57.56,-25.64,-178,-229,-125,0.07,0.20,-0.93,0.30,-159.48,-14.86,-147.17,29.43,815.55,229.06,-78.12,28.21,38.78,-69.85,-253,-215,-125,0.24,0.28,-0.89,0.28,-153.26,-34.99,-153.97,28.48,walking
390,883860,960.57,-475.95,-193.97,30.98,-33.48,-33.29,-253,-215,-125,0.29,0.29,-0.85,0.33,-154.73,-43.08,-147.40,29.41,711.49,-271.00,-355.90,48.58,-50.84,-52.65,-253,-215,-125,0.31,0.32,-0.83,0.34,-152.63,-46.87,-147.16,28.45,walking
391,883917,491.33,-524.17,-190.25,14.66,-47.16,-30.20,-253,-215,-125,0.30,0.29,-0.82,0.39,-159.17,-46.07,-137.66,29.42,649.54,-248.84,-215.15,31.79,-12.98,-46.30,-226,-226,-334,0.36,0.27,-0.82,0.37,-164.17,-51.54,-139.02,28.46,walking
392,883974,705.44,-592.04,-226.20,19.20,-32.14,-32.66,-226,-226,-334,0.38,0.20,-0.82,0.38,-175.92,-50.91,-131.62,29.43,615.91,-254.27,-138.00,21.16,-32.14,-36.99,-226,-226,-334,0.41,0.20,-0.81,0.37,-178.45,-53.93,-131.28,28.46,walking
393,884033,676.45,-529.30,-171.20,17.02,-26.28,-35.22,-226,-226,-334,0.42,0.16,-0.80,0.38,174.27,-53.77,-125.89,29.43,652.28,-235.90,-274.11,18.67,-34.18,-27.15,-402,-215,-394,0.43,0.19,-0.81,0.36,179.58,-56.32,-131.64,28.46,walking
394,884094,550.78,-513.61,-272.46,12.73,-56.00,-34.80,-402,-215,-394,0.41,0.18,-0.81,0.38,178.51,-52.66,-129.45,29.43,394.96,-289.49,-242.25,17.99,-34.06,-24.32,-402,-215,-394,0.39,0.18,-0.82,0.37,180.05,-50.73,-131.03,28.46,walking
395,884151,461.06,-494.32,-274.84,11.96,-19.95,-27.38,-402,-215,-394,0.37,0.16,-0.83,0.39,178.08,-47.98,-128.44,29.42,543.40,-268.68,-310.61,10.63,-13.44,-29.43,-415,-215,-448,0.39,0.17,-0.83,0.36,-179.33,-50.00,-133.13,28.48,walking
396,884208,505.43,-513.24,-323.36,9.45,-39.13,-24.21,-415,-215,-448,0.37,0.16,-0.84,0.37,179.33,-47.07,-131.53,29.40,586.43,-268.80,-297.91,15.64,-30.99,-33.19,-415,-215,-448,0.38,0.17,-0.84,0.35,-178.24,-49.55,-134.80,28.45,walking
397,884264,695.37,-512.39,-312.87,6.52,-45.07,-23.51,-415,-215,-448,0.38,0.17,-0.83,0.36,-179.53,-49.23,-133.03,29.44,670.35,-208.62,-264.53,19.37,-37.70,-34.93,-415,-215,-448,0.41,0.19,-0.83,0.34,-176.26,-53.22,-136.96,28.45,walking
398,884321,575.32,-495.91,-299.99,8.83,-57.18,-21.32,-449,-229,-448,0.39,0.18,-0.83,0.36,-178.01,-50.28,-133.84,29.39,488.22,-220.21,-265.01,19.97,-24.27,-42.07,-449,-229,-448,0.39,0.19,-0.83,0.35,-175.18,-51.81,-136.83,28.46,walking
399,884378,383.61,-508.36,-335.39,10.80,-40.31,-18.04,-449,-229,-448,0.35,0.17,-0.84,0.37,-177.45,-45.92,-133.63,29.41,476.38,-319.58,-388.61,25.76,-16.75,-59.38,-449,-229,-448,0.35,0.18,-0.85,0.35,-174.39,-46.10,-136.95,28.45,walking
400,884435,275.51,-656.43,-448.06,2.30,-84.68,3.76,-461,-200,-480,0.27,0.15,-0.87,0.37,-175.84,-36.05,-134.89,29.40,434.69,-591.61,-692.81,65.00,-60.04,-99.95,-461,-200,-480,0.25,0.17,-0.88,0.37,-172.18,-34.17,-137.20,28.46,walking
401,884492,-152.95,-1065.43,-999.51,-32.51,-127.30,58.18,-461,-200,-480,0.14,0.12,-0.92,0.35,-171.77,-19.66,-139.29,29.40,1049.87,-1035.71,-946.29,139.98,-83.55,-123.63,-461,-200,-480,0.16,0.17,-0.89,0.38,-168.05,-24.96,-135.98,28.45,walking
402,884551,1579.59,-951.23,-941.22,-90.19,-154.36,96.26,-305,-90,-555,0.20,0.16,-0.91,0.31,-168.22,-27.48,-145.04,29.41,1602.23,386.29,57.37,199.87,-121.83,-1.61,-305,-90,-555,0.28,0.21,-0.89,0.30,-164.50,-39.20,-147.96,28.45,walking
403,884606,1313.23,-766.60,-488.16,-32.35,-209.37,107.66,-305,-90,-555,0.28,0.18,-0.90,0.29,-167.87,-37.25,-147.84,29.42,1296.69,775.57,-285.58,133.72,-47.85,47.87,-305,-90,-555,0.36,0.22,-0.88,0.23,-161.14,-46.77,-159.27,28.43,walking
404,884663,1359.31,-322.45,-467.35,-4.43,-146.42,94.62,-305,-90,-555,0.37,0.19,-0.88,0.23,-164.86,-47.47,-157.66,29.40,1012.88,488.10,-372.99,72.01,-66.13,131.52,-415,-44,-863,0.41,0.20,-0.87,0.17,-159.54,-51.66,-167.80,28.46,walking
405,884721,1082.76,-218.32,-527.71,-1.80,-96.86,104.45,-415,-44,-863,0.41,0.18,-0.88,0.18,-164.78,-51.16,-163.79,29.42,1077.27,510.62,-288.51,22.83,-105.81,177.12,-415,-44,-863,0.44,0.17,-0.87,0.14,-161.66,-54.13,-171.08,28.45,walking
406,884777,815.67,-277.04,-259.46,10.98,-88.48,50.25,-415,-44,-863,0.44,0.15,-0.86,0.18,-169.79,-55.42,-161.10,29.40,913.02,57.01,-298.22,-36.53,-106.80,215.59,-241,-108,-926,0.46,0.10,-0.87,0.15,-175.62,-55.63,-162.62,28.48,walking
407,884834,657.23,-540.89,-467.90,14.83,-55.19,25.64,-241,-108,-926,0.43,0.06,-0.88,0.19,175.74,-51.44,-153.72,29.42,900.02,-196.23,-282.47,-59.33,-135.81,204.79,-241,-108,-926,0.43,0.02,-0.88,0.18,168.72,-50.49,-151.55,28.46,walking
408,884890,263.79,-577.82,-261.66,-15.30,-57.94,8.84,-241,-108,-926,0.40,-0.03,-0.88,0.24,159.86,-43.21,-141.14,29.41,433.35,-415.47,-277.28,-59.23,-130.71,172.56,-243,-44,-975,0.37,-0.09,-0.89,0.25,154.05,-37.61,-139.12,28.47,walking
409,884947,-11.47,-459.11,-385.68,-2.37,-102.10,30.26,-243,-44,-975,0.26,-0.15,-0.91,0.29,152.62,-23.02,-139.44,29.42,276.98,-213.13,-358.64,-11.25,-167.36,85.34,-243,-44,-975,0.25,-0.15,-0.92,0.26,153.51,-22.76,-143.53,28.46,walking
410,885005,235.17,-469.91,-339.42,10.31,-176.56,30.50,-243,-44,-975,0.23,-0.16,-0.92,0.28,153.37,-19.34,-141.08,29.40,399.29,-69.46,-322.75,68.53,-250.00,-9.62,-243,-44,-975,0.25,-0.12,-0.94,0.22,158.96,-24.15,-148.44,28.44,walking
411,885063,168.46,-372.56,-412.35,-4.85,-246.39,14.10,-222,3,-988,0.18,-0.12,-0.95,0.24,160.85,-16.77,-149.02,29.41,290.16,-188.48,-321.47,66.10,-172.72,-77.55,-222,3,-988,0.21,-0.09,-0.95,0.22,164.56,-20.81,-151.35,28.47,walking
412,885119,531.37,-402.77,-254.33,1.23,-83.94,-65.15,-222,3,-988,0.28,-0.06,-0.93,0.22,165.18,-29.44,-149.23,29.40,-123.23,-975.10,-16.54,5.68,-94.79,23.46,-222,3,-988,0.24,-0.10,-0.91,0.31,159.32,-21.97,-138.45,28.43,walking
413,885174,-185.91,-281.43,-191.96,53.28,-83.92,7.55,-239,160,-958,0.16,-0.14,-0.92,0.33,158.06,-11.16,-138.54,29.42,-93.14,-630.98,-273.19,-10.46,-7.39,-19.66,-239,160,-958,0.18,-0.16,-0.91,0.34,155.20,-12.20,-136.23,28.45,walking
414,885232,372.62,-936.83,-481.93,-8.45,74.98,-60.00,-239,160,-958,0.28,-0.15,-0.89,0.31,150.64,-23.58,-134.90,29.41,362.85,-276.61,-588.38,-3.20,42.32,-34.29,-239,160,-958,0.32,-0.15,-0.91,0.23,151.17,-30.65,-143.97,28.46,walking
415,885288,502.62,-428.22,-443.54,12.23,8.39,-41.10,-243,174,-975,0.36,-0.14,-0.90,0.21,150.77,-36.00,-144.31,29.39,465.09,-109.86,-258.06,34.48,-26.03,-32.38,-243,174,-975,0.40,-0.11,-0.89,0.17,153.58,-42.78,-148.34,28.45,walking
416,885345,719.12,-531.98,-182.68,38.96,-99.00,-13.79,-243,174,-975,0.43,-0.10,-0.87,0.21,149.97,-44.92,-140.40,29.42,493.04,-368.16,-196.78,45.86,-71.93,-33.04,-243,174,-975,0.45,-0.09,-0.86,0.22,148.78,-46.56,-137.20,28.43,walking
417,885401,584.84,-499.82,1.71,13.38,-66.89,-5.74,-243,174,-975,0.49,-0.10,-0.83,0.25,141.71,-49.41,-127.98,29.39,478.45,-313.35,-142.46,24.81,-32.77,-29.95,-464,213,-973,0.50,-0.08,-0.82,0.26,140.94,-51.26,-125.18,28.47,walking
418,885461,747.74,-533.14,-192.26,-5.19,-14.24,0.48,-464,213,-973,0.51,-0.08,-0.81,0.27,138.16,-51.88,-121.90,29.40,786.80,-190.37,-235.96,23.52,-43.56,-22.63,-464,213,-973,0.53,-0.05,-0.81,0.24,143.17,-56.70,-127.04,28.44,walking
419,885636,472.84,-527.71,-165.53,22.41,-62.42,-10.23,-454,210,-959,0.42,-0.16,-0.78,0.45,134.63,-30.22,-107.35,29.43,408.94,-322.57,-284.67,17.13,-50.32,-21.17,-439,-116,-961,0.43,-0.14,-0.81,0.38,137.19,-35.60,-114.59,28.44,walking
420,885694,567.20,-541.20,-230.47,9.81,-73.80,-4.58,-439,-116,-961,0.44,-0.13,-0.81,0.37,138.34,-37.92,-116.25,29.40,491.70,-261.29,-314.51,21.28,-56.30,-30.56,-439,-116,-961,0.44,-0.10,-0.83,0.32,143.54,-42.29,-123.56,28.46,walking
421,885750,515.69,-462.65,-277.34,7.35,-73.84,-3.28,-439,-116,-961,0.43,-0.09,-0.84,0.32,145.22,-41.79,-124.56,29.40,483.83,-218.87,-301.33,22.00,-36.34,-37.95,-403,350,-929,0.45,-0.06,-0.85,0.25,150.92,-47.86,-134.01,28.44,walking
422,885806,602.97,-454.04,-278.14,8.96,-45.01,-6.56,-403,350,-929,0.46,-0.06,-0.85,0.25,150.27,-48.28,-133.23,29.41,561.28,-310.06,-403.50,21.00,-12.49,-56.66,-403,350,-929,0.45,-0.02,-0.87,0.19,161.60,-51.59,-146.93,28.43,walking
423,885903,505.86,-631.41,-491.15,-0.07,-29.30,-22.43,-387,336,-899,0.42,-0.04,-0.88,0.23,157.82,-46.07,-141.08,29.40,484.50,-457.52,-534.48,40.02,-32.36,-87.49,-387,336,-899,0.39,-0.02,-0.89,0.23,162.25,-43.46,-143.69,28.46,walking
424,885970,234.07,-800.23,-558.59,-15.46,-89.36,21.79,-387,336,-899,0.33,-0.06,-0.90,0.27,159.58,-33.59,-140.25,29.41,846.07,-753.97,-1234.74,102.30,-84.05,-152.11,-387,336,-899,0.31,0.02,-0.92,0.23,172.89,-35.42,-149.60,28.44,walking
425,886048,820.19,-774.54,-625.37,-84.39,-136.01,55.56,-463,317,-880,0.29,0.00,-0.92,0.25,170.37,-32.64,-146.99,29.42,1055.60,-387.82,63.48,105.31,-44.54,-68.82,-463,317,-880,0.38,0.05,-0.88,0.28,169.84,-43.88,-140.57,28.43,walking
426,886105,961.98,-1070.80,-174.32,-59.36,-61.10,89.84,-463,317,-880,0.39,0.01,-0.87,0.32,161.69,-42.43,-132.51,29.42,1398.86,229.61,-43.46,40.76,9.58,-27.17,-463,317,-880,0.51,0.08,-0.83,0.22,169.12,-62.00,-144.08,28.43,walking
427,886169,1091.06,-503.91,-378.78,-48.55,-22.84,101.63,-270,352,-543,0.51,0.04,-0.83,0.23,161.10,-59.24,-137.99,29.40,937.93,337.59,-164.43,9.80,-25.91,74.03,-270,352,-543,0.54,0.07,-0.82,0.17,171.58,-65.85,-150.95,28.45,walking
428,886227,1079.71,-408.14,-508.73,-12.04,-18.03,116.40,-270,352,-543,0.52,0.04,-0.83,0.20,162.89,-61.72,-142.35,29.41,1078.06,406.49,-332.03,-44.17,-46.84,151.71,-270,352,-543,0.53,0.05,-0.83,0.14,171.85,-64.41,-155.19,28.45,walking
429,886283,976.50,-266.85,-510.86,-9.86,-3.84,110.29,-359,319,-555,0.52,0.03,-0.83,0.19,162.02,-61.13,-143.36,29.40,1050.05,378.42,-293.33,-95.89,-55.35,214.04,-359,319,-555,0.53,0.02,-0.83,0.15,164.43,-62.79,-149.51,28.45,walking
430,886339,1036.44,-182.13,-458.13,5.17,2.37,67.99,-359,319,-555,0.53,0.02,-0.83,0.18,159.64,-62.01,-142.55,29.39,1149.23,294.01,-236.27,-125.05,-81.84,249.99,-359,319,-555,0.53,-0.00,-0.83,0.16,158.24,-62.52,-144.88,28.45,walking
431,886396,862.67,-196.17,-401.06,7.22,0.87,12.47,-453,-113,-546,0.53,0.04,-0.83,0.20,162.34,-62.12,-141.51,29.41,-91.55,-29.60,-504.27,-61.26,-34.94,152.70,-453,-113,-546,0.19,0.01,-0.96,0.20,176.84,-22.25,-155.66,28.44,walking
432,886513,-273.25,-441.04,-484.74,18.25,-42.93,-8.30,-453,-113,-546,0.05,-0.01,-0.94,0.33,176.87,-4.46,-141.80,29.40,398.68,-191.28,-386.05,68.85,-10.09,-105.87,-307,287,-543,0.22,0.06,-0.93,0.28,179.28,-26.50,-146.32,28.45,walking
433,886570,727.48,-1029.97,-890.99,2.06,12.17,-46.54,-307,287,-543,0.24,0.07,-0.92,0.30,178.81,-28.92,-143.58,29.39,495.97,-414.00,-885.68,7.00,83.95,-13.90,-307,287,-543,0.26,0.07,-0.93,0.26,179.88,-31.47,-147.97,28.45,walking
434,886628,147.34,-1127.81,-450.13,26.07,124.05,-30.74,-307,287,-543,0.26,0.04,-0.90,0.34,173.28,-29.29,-136.34,29.42,835.27,-446.04,-335.45,29.97,98.92,-96.68,-442,-85,-536,0.35,0.08,-0.87,0.34,172.36,-41.42,-133.87,28.47,walking
435,886683,1088.01,-238.40,-57.86,33.91,7.39,-52.76,-442,-85,-536,0.43,0.12,-0.83,0.34,171.87,-52.59,-131.69,29.40,869.75,-208.07,-176.39,58.74,-34.72,-58.98,-442,-85,-536,0.46,0.16,-0.81,0.33,174.96,-58.48,-133.10,28.46,walking
436,886739,737.00,-633.85,-302.67,29.82,-63.93,-49.29,-442,-85,-536,0.44,0.15,-0.81,0.35,173.76,-55.22,-130.18,29.38,437.07,-270.51,-317.32,32.31,-17.94,-51.35,-442,317,-553,0.42,0.16,-0.83,0.33,179.75,-53.82,-136.89,28.45,walking
437,886796,573.00,-549.26,-327.09,28.89,8.22,-44.65,-442,317,-553,0.41,0.15,-0.83,0.35,177.37,-51.91,-133.22,29.40,751.46,-212.83,-385.31,13.54,-12.56,-39.39,-414,-60,-541,0.48,0.22,-0.83,0.18,-156.78,-60.80,-168.87,28.46,walking
438,886937,679.75,-522.95,-388.06,17.78,-20.36,-49.96,-414,-60,-541,0.45,0.21,-0.83,0.24,-165.73,-58.72,-155.97,29.38,546.51,-248.84,-341.19,9.15,-1.42,-34.06,-414,-60,-541,0.44,0.20,-0.84,0.26,-167.83,-56.99,-152.16,28.45,walking
439,887004,578.67,-537.84,-329.71,24.51,28.42,-53.31,-414,-60,-541,0.43,0.18,-0.83,0.31,-175.54,-55.25,-141.90,29.40,553.04,-285.52,-384.22,1.77,28.37,-37.32,-442,324,-543,0.42,0.19,-0.84,0.30,-174.21,-54.74,-143.43,28.46,walking
440,887065,447.88,-533.51,-337.22,21.74,14.19,-56.50,-442,324,-543,0.40,0.17,-0.84,0.34,-178.54,-51.21,-136.84,29.40,443.05,-295.41,-490.54,11.35,2.20,-71.86,-354,324,-553,0.34,0.22,-0.89,0.21,-159.81,-43.98,-161.19,28.45,walking
441,887184,488.40,-563.05,-460.39,-2.16,-16.75,-36.92,-354,324,-553,0.32,0.20,-0.88,0.29,-167.11,-42.37,-148.29,29.39,567.81,-491.39,-412.05,16.37,0.67,-95.36,-354,324,-553,0.32,0.21,-0.87,0.31,-167.07,-43.88,-145.71,28.43,walking
442,887273,3.05,-770.26,-531.68,-25.38,-36.06,10.31,-238,319,-494,0.15,0.13,-0.93,0.32,-171.25,-20.72,-143.44,29.39,443.73,-923.71,-918.64,40.39,-18.10,-160.08,-238,319,-494,0.20,0.18,-0.91,0.31,-166.93,-28.73,-145.38,28.46,walking
443,887326,277.10,-812.32,-574.10,-77.87,-41.60,37.55,-238,319,-494,0.19,0.16,-0.92,0.32,-168.84,-26.62,-144.46,29.40,748.41,-429.69,77.27,12.34,43.77,-94.61,-238,319,-494,0.33,0.21,-0.85,0.35,-169.69,-44.79,-140.02,28.44,walking
444,887382,638.00,-885.25,115.84,-65.29,78.41,73.48,-172,324,-499,0.39,0.15,-0.83,0.38,176.54,-48.98,-128.77,29.39,1315.80,18.55,287.90,-31.03,113.65,-89.46,-172,324,-499,0.53,0.19,-0.77,0.30,177.13,-68.09,-135.82,28.44,walking
445,887439,1200.56,-739.69,-35.89,-58.53,133.75,97.77,-172,324,-499,0.57,0.12,-0.76,0.30,155.40,-68.62,-119.73,29.38,1035.10,474.49,203.19,-135.12,58.42,79.38,-456,-61,-556,0.75,0.17,-0.63,0.11,-14.58,-79.31,37.47,28.44,walking
446,887541,1076.29,-392.76,-328.00,2.31,123.42,114.05,-456,-61,-556,0.72,0.14,-0.66,0.18,45.99,-84.26,-18.95,29.38,1036.87,406.74,-45.59,-166.02,30.63,148.22,-456,-61,-556,0.71,0.16,-0.66,0.16,22.80,-86.11,3.65,28.43,walking
447,887597,1091.25,-245.30,-404.05,19.27,127.03,90.50,-456,-61,-556,0.68,0.15,-0.69,0.22,112.55,-84.34,-81.88,29.37,1112.12,347.05,-141.48,-168.94,10.84,220.10,-456,-61,-556,0.67,0.14,-0.70,0.20,132.69,-84.33,-104.05,28.44,walking
448,887662,969.79,-293.27,-711.73,13.38,97.95,53.11,-429,222,-826,0.61,0.12,-0.76,0.21,160.68,-75.61,-133.15,29.39,1039.73,-64.51,-294.74,-127.89,-29.27,249.99,-429,222,-826,0.59,0.07,-0.78,0.21,155.72,-70.71,-132.72,28.45,walking
449,887720,576.66,-563.96,-525.57,14.07,36.48,56.95,-429,222,-826,0.53,0.02,-0.81,0.25,151.96,-60.92,-128.79,29.39,624.82,-226.07,-326.78,-60.45,-55.04,240.01,-429,222,-826,0.50,-0.02,-0.83,0.25,150.47,-54.66,-130.82,28.44,walking
450,887775,-377.93,-408.33,-539.92,93.03,-7.92,29.98,-300,116,-772,0.38,-0.08,-0.88,0.29,152.79,-38.03,-133.77,29.39,-171.94,-367.49,-513.00,61.78,-73.01,30.85,-300,116,-772,0.27,-0.12,-0.91,0.30,155.11,-24.97,-138.23,28.45,walking
451,887849,208.44,-377.81,-391.42,31.67,-83.77,-1.42,-300,116,-772,0.25,-0.12,-0.92,0.28,156.91,-23.43,-140.99,29.41,806.52,-101.26,-289.00,77.80,57.66,-142.63,-300,116,-772,0.37,-0.05,-0.90,0.21,160.44,-40.48,-145.94,28.44,walking
452,887919,78.92,-940.55,-970.76,3.01,142.14,-6.58,-239,109,-853,0.33,-0.12,-0.90,0.25,153.45,-31.89,-141.55,29.39,820.07,-293.52,-774.66,3.34,125.24,-61.17,-239,109,-853,0.38,-0.11,-0.90,0.18,154.48,-40.35,-147.37,28.45,walking
453,888046,654.91,-527.59,-295.04,35.00,-54.88,-49.19,-459,98,-880,0.45,-0.02,-0.80,0.39,146.98,-45.49,-113.94,29.39,527.89,-391.91,-328.37,41.32,-31.62,-44.83,-459,98,-880,0.46,-0.01,-0.82,0.35,150.61,-47.97,-120.72,28.45,walking
454,888103,468.81,-515.62,-311.22,23.31,11.99,-46.35,-459,98,-880,0.45,-0.02,-0.83,0.33,150.73,-47.52,-122.91,29.40,731.38,-287.17,-247.31,15.69,31.46,-43.25,-388,112,-880,0.50,0.00,-0.82,0.28,151.33,-55.05,-127.17,28.45,walking
455,888161,714.90,-554.26,-220.70,28.01,15.51,-51.78,-388,112,-880,0.51,-0.00,-0.81,0.29,148.19,-55.90,-123.91,29.38,690.98,-273.56,-274.72,6.84,5.26,-34.53,-388,112,-880,0.52,0.01,-0.81,0.25,151.11,-58.69,-128.72,28.42,walking
456,888256,594.48,-520.32,-338.56,21.61,-21.90,-50.98,-468,114,-879,0.46,-0.01,-0.83,0.30,152.78,-50.19,-126.99,29.37,444.70,-269.04,-330.57,15.08,-15.03,-30.00,-468,114,-879,0.45,-0.00,-0.85,0.28,156.76,-50.11,-132.35,28.45,walking
457,888313,513.73,-507.57,-330.51,23.28,5.58,-48.19,-468,114,-879,0.45,-0.01,-0.84,0.29,155.65,-48.76,-130.29,29.38,510.38,-285.77,-354.00,11.41,4.99,-36.23,-468,114,-879,0.45,0.00,-0.85,0.27,158.74,-49.91,-134.72,28.44,walking
458,888379,560.49,-519.29,-358.58,20.72,-9.42,-51.73,-424,110,-879,0.44,-0.00,-0.85,0.28,157.91,-48.45,-132.93,29.37,460.75,-307.37,-338.07,11.01,6.67,-48.07,-424,110,-879,0.44,0.00,-0.86,0.27,160.04,-49.10,-136.25,28.45,walking
459,888446,445.19,-538.33,-304.02,14.20,-14.14,-50.76,-424,110,-879,0.42,-0.01,-0.86,0.30,157.07,-45.82,-131.58,29.38,472.05,-297.73,-388.67,9.79,9.93,-68.73,-424,110,-879,0.43,0.00,-0.87,0.26,161.08,-47.66,-137.73,28.44,walking
460,888502,512.70,-529.11,-347.66,1.01,-11.44,-41.85,-348,105,-833,0.42,-0.01,-0.86,0.27,159.32,-46.57,-136.06,29.38,553.83,-305.97,-391.97,15.57,-0.47,-89.58,-348,105,-833,0.43,0.01,-0.87,0.24,163.23,-49.18,-141.16,28.45,walking
461,888559,474.55,-845.52,-451.23,-4.71,-39.03,-15.80,-348,105,-833,0.40,-0.02,-0.87,0.28,158.92,-43.35,-135.81,29.36,1137.76,507.20,-51.64,-88.11,40.15,96.87,-222,47,-873,0.59,-0.32,0.03,-0.74,-95.81,-26.33,-28.17,28.43,walking
462,888980,1183.59,-89.36,-632.39,10.34,60.39,48.64,-199,3,-880,0.50,-0.23,-0.49,-0.68,-131.16,-53.59,46.00,29.37,344.06,-178.53,-168.58,-50.36,-45.75,199.13,-442,116,-985,0.78,-0.19,-0.58,-0.18,-12.40,-73.68,-17.70,28.45,walking
463,889132,-209.90,-417.18,-532.59,31.62,-32.63,-10.36,-442,116,-985,0.70,-0.20,-0.68,0.08,82.55,-67.46,-92.47,29.40,-199.52,-728.52,-1168.21,22.29,-21.27,-0.79,-442,116,-985,0.55,-0.26,-0.77,0.22,113.03,-46.15,-116.29,28.43,walking
464,889205,-983.28,-1257.81,-507.51,35.40,37.94,26.54,-415,208,-954,0.47,-0.35,-0.74,0.33,111.29,-27.47,-112.67,29.38,787.23,-525.21,-515.87,21.64,118.23,-119.43,-415,208,-954,0.51,-0.32,-0.76,0.25,110.51,-38.14,-116.20,28.47,walking
465,889262,1413.21,-231.87,55.18,16.89,50.60,-43.51,-415,208,-954,0.59,-0.25,-0.75,0.20,107.54,-51.06,-111.87,29.37,1069.64,83.07,190.06,58.38,-11.10,-58.69,-415,208,-954,0.64,-0.15,-0.73,0.16,106.79,-63.12,-105.92,28.45,walking
466,889318,818.79,-759.64,-386.72,36.95,-33.39,-47.82,-397,210,-875,0.60,-0.16,-0.75,0.22,114.53,-57.10,-109.37,29.39,459.11,-253.78,-276.25,17.46,25.57,-52.89,-397,210,-875,0.56,-0.13,-0.79,0.21,128.34,-56.12,-121.60,28.45,walking
467,889402,672.97,-565.43,-165.04,28.34,16.85,-41.21,-397,210,-875,0.57,-0.13,-0.78,0.25,124.64,-54.62,-114.36,29.35,669.31,-250.18,-389.83,9.94,-2.11,-37.34,-353,210,-879,0.53,-0.08,-0.83,0.17,143.63,-57.96,-135.79,28.44,walking
468,889500,595.15,-527.28,-364.32,18.98,-13.56,-47.92,-353,210,-879,0.50,-0.09,-0.83,0.22,141.99,-52.63,-130.32,29.35,502.26,-252.14,-331.97,15.46,-13.57,-31.91,-353,210,-879,0.49,-0.08,-0.84,0.21,146.00,-52.61,-134.52,28.45,walking
469,889557,461.85,-535.77,-367.55,17.27,3.52,-41.41,-353,210,-879,0.47,-0.09,-0.84,0.24,144.35,-48.71,-131.31,29.37,576.42,-266.66,-400.57,7.32,10.35,-36.84,-329,210,-879,0.48,-0.08,-0.85,0.20,149.38,-51.30,-138.55,28.43,walking
470,889619,597.41,-533.45,-403.26,13.83,-1.08,-39.01,-329,210,-879,0.47,-0.08,-0.85,0.22,147.84,-49.51,-135.54,29.36,529.66,-245.61,-364.81,15.22,-10.08,-42.14,-329,210,-879,0.47,-0.07,-0.86,0.20,151.53,-50.64,-139.75,28.43,walking
471,889783,407.35,-526.79,-351.93,6.20,-40.95,-31.56,-339,216,-865,0.33,-0.16,-0.86,0.36,144.76,-27.11,-125.77,29.37,321.47,-326.29,-363.59,15.61,-10.44,-67.62,-339,216,-865,0.37,-0.14,-0.87,0.29,146.39,-33.57,-132.30,28.44,walking
472,889840,183.04,-638.73,-341.74,-7.19,-53.10,-6.32,-339,216,-865,0.34,-0.17,-0.87,0.31,144.96,-29.33,-131.14,29.36,346.80,-648.32,-637.94,32.51,-32.91,-116.39,-293,225,-857,0.34,-0.15,-0.89,0.27,148.11,-31.98,-136.16,28.43,walking
473,889896,-343.26,-831.60,-696.72,-24.76,-95.01,34.19,-293,225,-857,0.25,-0.20,-0.90,0.29,147.86,-19.96,-138.39,29.37,495.06,-1222.90,-717.47,58.75,5.51,-152.95,-293,225,-857,0.30,-0.16,-0.89,0.29,148.59,-26.40,-135.85,28.43,walking
474,889953,769.59,-1036.32,-703.92,-80.63,9.32,72.13,-293,225,-857,0.34,-0.19,-0.88,0.26,144.31,-29.99,-136.93,29.37,1511.11,219.42,-80.02,59.78,30.94,-58.63,-239,-106,-772,0.45,-0.12,-0.87,0.20,146.44,-46.45,-139.71,28.44,walking
475,890086,1342.16,-299.62,-711.98,14.92,-60.08,93.12,-239,-106,-772,0.45,-0.08,-0.87,0.18,153.36,-48.77,-144.18,29.37,1181.03,654.42,-431.76,29.50,-16.29,131.08,-249,-120,-816,0.48,-0.04,-0.87,0.12,161.15,-54.87,-154.49,28.43,walking
476,890143,1228.94,-250.85,-669.68,25.73,-61.13,94.73,-249,-120,-816,0.47,-0.04,-0.87,0.15,159.97,-53.27,-150.84,29.37,1045.78,465.70,-432.37,27.53,-95.66,195.59,-249,-120,-816,0.47,-0.02,-0.88,0.11,165.55,-54.43,-157.77,28.44,walking
477,890264,628.48,-380.43,-282.04,54.28,-175.75,44.56,-464,-90,-771,0.35,-0.01,-0.83,0.44,156.87,-34.90,-116.23,29.38,776.18,-124.15,-18.49,69.96,-219.89,206.56,-464,-90,-771,0.37,0.01,-0.83,0.42,157.88,-38.60,-117.77,28.44,walking
478,890330,273.01,-371.95,186.46,50.29,-244.26,49.01,-464,-90,-771,0.38,0.01,-0.79,0.49,154.25,-37.01,-108.00,29.35,193.66,-311.40,-188.35,72.45,-250.00,93.19,-441,353,-555,0.29,0.05,-0.86,0.42,169.21,-32.41,-125.10,28.43,walking
479,890409,-357.30,-464.17,-383.79,-11.52,-154.59,7.03,-441,353,-555,0.16,0.02,-0.91,0.39,174.60,-17.07,-132.56,29.37,-0.31,-295.59,-537.66,-5.20,-59.53,-48.65,-441,353,-555,0.15,0.04,-0.93,0.33,178.69,-18.25,-141.00,28.41,walking
480,890467,578.06,-887.57,-127.32,-34.97,41.90,-56.61,-441,353,-555,0.26,0.07,-0.88,0.39,175.65,-30.90,-131.61,29.34,614.26,-257.08,-587.04,-25.97,62.07,-51.69,-463,317,-125,0.60,0.29,-0.71,0.25,-139.64,-80.69,-175.00,28.45,walking
481,890590,816.96,-399.05,-219.24,-15.72,-13.97,-34.13,-463,317,-125,0.58,0.28,-0.69,0.34,178.91,-79.30,-127.17,29.38,617.98,-135.86,-175.29,4.48,-4.80,-34.47,-463,317,-125,0.56,0.29,-0.68,0.37,175.12,-78.38,-119.28,28.44,walking
482,890647,714.60,-418.40,-369.93,6.77,-28.54,-22.54,-463,317,-125,0.51,0.28,-0.70,0.40,177.92,-71.84,-118.76,29.34,500.12,-327.88,-275.76,17.75,-29.55,-24.46,-466,348,-111,0.47,0.28,-0.72,0.43,180.11,-66.81,-118.05,28.44,walking
483,890703,544.01,-587.71,-168.76,4.79,-18.94,-11.11,-466,348,-111,0.44,0.25,-0.72,0.48,173.25,-60.48,-108.27,29.35,615.97,-276.00,-104.06,14.73,-22.80,-18.19,-466,348,-111,0.44,0.27,-0.70,0.49,172.95,-62.15,-105.91,28.45,walking
484,890765,602.72,-542.11,-253.48,6.69,-21.16,-11.72,-466,348,-111,0.41,0.26,-0.72,0.50,175.72,-57.57,-107.82,29.34,684.75,-228.58,-288.76,10.53,-28.69,-13.17,-459,317,-125,0.41,0.29,-0.73,0.48,-176.67,-59.67,-115.35,28.44,walking
485,890822,851.81,-538.02,-292.72,2.89,-57.98,-7.87,-459,317,-125,0.39,0.29,-0.73,0.48,-174.83,-58.00,-115.45,29.36,435.55,-297.85,-187.62,25.50,-85.88,-0.13,-459,317,-125,0.31,0.31,-0.74,0.50,-165.57,-51.33,-118.87,28.45,walking
486,890956,568.60,-504.27,-190.86,2.10,-54.89,-2.71,-470,317,-118,0.29,0.31,-0.72,0.55,-168.24,-48.81,-110.71,29.34,517.52,-295.59,-178.34,10.60,-61.97,-1.10,-470,317,-118,0.29,0.34,-0.72,0.53,-162.68,-51.15,-115.28,28.44,walking
487,891024,523.56,-528.20,-231.02,1.30,-58.60,-1.45,-470,317,-118,0.26,0.34,-0.73,0.54,-161.50,-48.26,-115.01,29.36,505.07,-293.64,-278.08,9.51,-67.42,-7.17,-456,317,-40,0.27,0.37,-0.71,0.53,-157.00,-50.65,-117.75,28.45,walking
488,891080,342.59,-484.92,-295.84,3.20,-81.76,0.56,-456,317,-40,0.22,0.37,-0.72,0.54,-154.50,-46.04,-117.49,29.34,128.17,-348.33,-285.71,16.63,-66.35,-18.93,-456,317,-40,0.17,0.37,-0.74,0.53,-150.45,-40.76,-119.48,28.45,walking
489,891136,42.05,-568.05,-385.25,7.32,-77.38,6.78,-456,317,-40,0.10,0.37,-0.75,0.54,-147.61,-33.22,-119.04,29.34,735.11,-270.20,-813.60,68.93,-79.13,-110.66,-470,-120,-10,0.19,0.60,-0.72,0.29,-105.19,-39.03,-166.03,28.44,walking
490,891288,586.85,-1217.83,-1209.53,-67.50,-176.99,81.08,-470,-120,-10,0.05,0.54,-0.80,0.27,-115.98,-21.50,-156.19,29.35,1542.18,306.64,168.46,109.66,-98.26,-6.10,-466,153,107,0.29,0.79,-0.41,0.36,-47.18,-53.03,164.34,28.42,walking
491,891455,1181.21,-309.33,-565.49,-29.14,-147.07,72.95,-466,153,107,0.18,0.70,-0.58,0.36,-84.98,-46.41,-166.36,29.31,1017.21,433.11,-402.77,62.77,-115.21,120.57,-427,114,-96,0.23,0.69,-0.59,0.34,-84.17,-47.60,-172.38,28.42,walking
492,891512,734.37,-222.78,-422.36,-17.31,-101.81,69.13,-427,114,-96,0.21,0.67,-0.63,0.35,-92.19,-46.04,-166.83,29.37,883.24,191.41,-331.42,-22.40,-99.01,163.10,-427,114,-96,0.24,0.64,-0.64,0.34,-94.32,-48.44,-169.60,28.43,walking
493,891567,695.31,-279.60,-377.20,-8.86,-47.16,34.65,-427,114,-96,0.23,0.62,-0.65,0.37,-100.90,-49.18,-162.75,29.35,889.22,35.22,-290.28,-81.05,-107.78,188.34,-468,-114,-92,0.27,0.56,-0.70,0.35,-110.72,-50.91,-163.09,28.44,walking
494,891624,479.86,-441.83,-365.84,-12.55,-32.86,-4.10,-468,-114,-92,0.24,0.52,-0.73,0.37,-120.02,-47.82,-154.41,29.35,654.60,-358.46,-343.44,-99.11,-141.99,177.62,-468,-114,-92,0.21,0.45,-0.79,0.37,-132.55,-40.89,-148.84,28.45,walking
495,891696,2.99,-367.68,-583.56,-28.13,-47.33,-4.95,-468,-114,-92,0.12,0.45,-0.82,0.33,-130.89,-29.52,-149.85,29.36,21.55,-175.05,-541.44,-47.29,-129.46,107.51,-358,-44,-121,0.04,0.44,-0.85,0.26,-128.96,-17.88,-154.19,28.43,walking
496,891751,-209.84,-449.34,-667.91,9.77,-83.28,2.20,-358,-44,-121,-0.04,0.45,-0.85,0.26,-126.35,-9.11,-150.69,29.36,-16.30,-197.51,-409.61,34.87,-166.15,-16.87,-358,-44,-121,-0.10,0.48,-0.84,0.25,-121.23,-4.44,-149.65,28.44,walking
497,891808,91.61,-347.11,-462.40,-4.59,-186.86,-8.98,-358,-44,-121,-0.12,0.51,-0.81,0.26,-116.35,-3.54,-147.02,29.36,481.93,-83.86,-439.58,50.67,-119.38,-101.85,-461,-114,-109,-0.05,0.57,-0.78,0.27,-110.78,-13.32,-150.71,28.43,walking
498,891875,1079.96,-654.97,-509.46,3.40,-43.70,-97.11,-461,-114,-109,0.02,0.59,-0.72,0.35,-108.98,-26.96,-147.19,29.37,-401.49,-388.24,-254.88,-0.97,-43.14,47.45,-461,-114,-109,-0.11,0.54,-0.78,0.29,-113.12,-8.45,-145.07,28.44,walking
499,891991,585.63,-561.04,-651.61,7.20,20.84,-50.61,-468,-118,15,0.05,0.61,-0.67,0.41,-106.98,-35.03,-143.43,29.34,126.65,-115.72,-373.54,37.60,-15.49,-48.71,-468,-118,15,0.05,0.62,-0.70,0.36,-105.77,-30.42,-149.45,28.43,walking
500,892046,437.81,-424.50,-210.94,44.48,-61.33,-35.58,-468,-118,15,0.04,0.59,-0.69,0.41,-110.99,-32.86,-141.42,29.35,456.48,-297.67,-332.52,41.98,-25.03,-43.37,-468,-118,15,0.06,0.58,-0.69,0.42,-112.36,-35.41,-141.01,28.43,walking
501,892129,725.89,-484.86,-182.56,18.59,-13.17,-32.39,-454,-43,11,0.11,0.56,-0.64,0.52,-120.29,-46.37,-128.91,29.34,421.39,-294.68,-314.45,15.39,-12.06,-36.58,-454,-43,11,0.13,0.56,-0.68,0.46,-118.39,-43.60,-138.38,28.43,walking
502,892226,616.21,-521.79,-241.64,17.35,-27.59,-28.18,-442,-68,9,0.13,0.54,-0.67,0.49,-122.97,-44.44,-132.94,29.36,461.43,-280.46,-379.15,14.37,-22.32,-40.54,-442,-68,9,0.16,0.56,-0.70,0.42,-116.22,-43.32,-146.28,28.44,walking
503,892341,665.77,-502.93,-298.58,5.76,-18.42,-27.16,-463,-75,-13,0.16,0.54,-0.69,0.45,-121.03,-45.07,-140.48,29.34,564.09,-237.18,-329.47,12.70,-11.06,-41.78,-463,-75,-13,0.18,0.54,-0.69,0.44,-120.11,-47.41,-142.47,28.44,walking
504,892397,650.70,-492.74,-302.00,6.94,-18.73,-25.98,-463,-75,-13,0.18,0.53,-0.69,0.47,-124.42,-47.70,-137.84,29.35,510.31,-259.58,-369.51,13.00,-5.78,-43.22,-463,-75,-13,0.19,0.53,-0.69,0.45,-122.63,-48.19,-141.04,28.43,walking
505,892453,657.84,-521.00,-324.22,6.97,-17.78,-28.72,-239,-92,-6,0.19,0.50,-0.70,0.47,-128.37,-47.94,-136.70,29.36,467.71,-277.22,-379.82,14.17,-1.74,-51.35,-239,-92,-6,0.21,0.50,-0.71,0.44,-127.22,-47.69,-140.74,28.43,walking
506,892552,471.01,-521.48,-305.91,1.69,1.80,-30.15,-239,-92,-6,0.17,0.44,-0.74,0.49,-139.15,-42.46,-129.20,29.36,580.75,-249.45,-364.07,14.07,8.29,-80.18,-249,-113,-10,0.21,0.46,-0.73,0.47,-135.98,-46.91,-134.43,28.45,walking
507,892610,589.42,-575.38,-381.23,-4.88,-18.04,-29.82,-249,-113,-10,0.20,0.44,-0.74,0.47,-138.31,-45.32,-132.57,29.35,613.53,-495.18,-535.58,24.09,-12.76,-102.43,-249,-113,-10,0.20,0.46,-0.74,0.46,-135.31,-45.53,-135.73,28.43,walking
508,892666,298.71,-851.44,-424.26,-18.60,-51.80,-1.12,-249,-113,-10,0.13,0.42,-0.77,0.47,-139.42,-36.71,-131.31,29.36,433.84,-645.51,-803.04,39.59,-21.00,-155.64,-251,-73,-1,0.12,0.46,-0.76,0.44,-132.52,-35.91,-135.62,28.43,walking
509,892723,73.00,-930.73,-893.55,-68.12,-60.37,35.27,-251,-73,-1,0.05,0.44,-0.80,0.41,-131.99,-25.81,-137.45,29.35,580.44,-837.10,-189.03,63.68,-17.42,-133.95,-251,-73,-1,0.05,0.46,-0.74,0.48,-131.79,-31.67,-128.35,28.43,walking
510,892778,695.98,-868.35,24.72,-59.49,50.53,63.13,-251,-73,-1,0.07,0.42,-0.73,0.54,-140.62,-33.79,-119.11,29.36,1400.09,92.04,487.43,17.40,113.17,-81.76,-251,-73,-1,0.20,0.44,-0.65,0.58,-146.39,-51.20,-112.78,28.43,walking
511,892834,1376.34,-992.61,-223.45,-39.47,46.42,102.77,-219,-109,26,0.21,0.40,-0.67,0.59,-154.23,-49.36,-108.49,29.36,1004.21,299.50,-35.89,-3.20,37.64,-9.74,-219,-109,26,0.31,0.45,-0.62,0.56,-152.37,-62.52,-112.50,28.42,walking
512,892892,1086.36,-530.21,-422.30,-19.17,34.84,117.82,-219,-109,26,0.29,0.43,-0.65,0.56,-152.90,-58.87,-114.02,29.35,1111.69,532.65,-81.30,-66.38,29.28,100.24,-219,-109,26,0.37,0.46,-0.62,0.52,-147.69,-68.82,-122.75,28.43,walking
513,892947,1008.00,-326.97,-454.59,6.01,48.68,121.37,-145,-92,53,0.32,0.47,-0.64,0.52,-143.14,-63.90,-124.63,29.33,990.36,420.29,-249.33,-104.87,-11.73,163.96,-145,-92,53,0.35,0.50,-0.63,0.48,-130.93,-67.39,-139.27,28.45,walking
514,893003,1051.09,-195.56,-494.75,8.42,53.12,103.43,-145,-92,53,0.33,0.51,-0.64,0.48,-129.44,-64.85,-139.05,29.34,1169.01,439.76,-285.46,-136.87,-31.62,232.70,-145,-92,53,0.36,0.51,-0.64,0.44,-123.11,-65.99,-149.48,28.44,walking
515,893060,1058.47,-221.86,-554.87,14.05,44.14,44.53,-145,-92,53,0.33,0.52,-0.64,0.45,-120.89,-63.90,-149.37,29.35,1136.41,141.66,-231.38,-133.67,-76.17,249.99,-470,-58,97,0.35,0.51,-0.66,0.44,-122.52,-63.90,-150.42,28.42,walking
516,893116,697.63,-418.33,-435.85,6.17,1.79,21.29,-470,-58,97,0.30,0.52,-0.66,0.46,-124.74,-60.01,-143.96,29.35,448.43,-429.57,-474.73,-95.62,-48.86,249.99,-470,-58,97,0.22,0.48,-0.72,0.45,-130.88,-48.41,-138.74,28.45,walking
